t,aX,aY,aZ
0.0,0.466,-2.000,0.938
2.502,1.081,-0.117,0.482
5.005,1.999,-1.400,-0.105
7.507,1.999,0.047,-0.212
10.01,0.423,0.688,0.902
12.512,0.359,0.895,0.251
15.015,0.337,-0.254,0.121
17.517,0.693,0.242,0.240
20.02,1.193,-0.278,-0.453
22.522,0.968,-0.837,0.074
25.024,1.045,-0.197,0.211
27.527,0.945,-0.067,0.102
30.029,0.757,0.465,0.242
32.532,1.112,0.996,0.288
35.034,0.749,-0.481,0.186
37.537,0.882,0.331,0.300
40.039,1.194,-0.168,-0.356
42.542,1.194,-0.168,-0.356
45.044,1.090,-0.993,-0.143
47.546,1.131,-0.591,0.097
50.049,1.472,-0.008,-0.051
52.551,0.759,0.210,0.449
55.054,0.743,1.124,0.344
57.556,0.456,-0.093,0.015
60.059,0.766,-0.004,0.202
62.561,1.641,0.327,-0.325
65.063,1.514,-0.493,-0.137
67.566,1.523,-0.910,0.074
70.068,1.620,0.742,-0.188
72.571,0.680,-0.149,0.334
75.073,0.531,0.234,0.134
77.576,1.012,0.245,0.090
80.078,1.009,-0.366,-0.030
82.581,1.154,-0.155,-0.007
85.083,1.154,-0.155,-0.007
87.585,1.320,-0.249,0.257
90.088,0.965,-0.142,0.095
92.59,0.800,0.695,0.342
95.093,1.062,0.805,0.315
97.595,0.734,-0.539,0.237
100.098,0.873,0.323,0.230
102.6,1.183,-0.148,-0.325
105.103,1.112,-0.966,-0.126
107.605,1.163,-0.617,0.112
110.107,1.584,0.046,-0.129
112.61,0.743,0.109,0.553
115.112,0.688,1.074,0.253
117.615,0.460,0.109,-0.048
120.117,0.780,-0.083,0.265
122.62,1.585,0.248,-0.283
125.122,1.531,-0.499,-0.079
127.625,1.531,-0.499,-0.079
130.127,1.521,-0.872,0.090
132.629,1.514,0.873,-0.060
135.132,0.726,-0.101,0.261
137.634,0.574,0.112,0.134
140.137,0.991,0.267,0.086
142.639,1.019,-0.341,-0.101
145.142,1.129,-0.235,-0.007
147.644,1.315,-0.273,0.222
150.146,1.012,-0.133,0.132
152.649,0.779,0.571,0.295
155.151,1.056,0.928,0.312
157.654,0.715,-0.405,0.180
160.156,0.780,0.287,0.277
162.659,1.184,-0.141,-0.319
165.161,1.117,-0.970,-0.172
167.664,1.219,-0.661,0.108
170.166,1.219,-0.661,0.108
172.668,1.628,0.101,-0.145
175.171,0.777,0.094,0.562
177.673,0.681,0.949,0.217
180.176,0.459,0.094,-0.062
182.678,0.784,-0.016,0.336
185.181,1.600,0.297,-0.341
187.683,1.565,-0.524,-0.080
190.186,1.516,-0.809,0.094
192.688,1.476,0.902,-0.066
195.19,0.745,-0.098,0.243
197.693,1.535,0.312,-0.356
200.195,1.535,0.312,-0.356
202.698,1.547,-0.466,0.001
205.2,1.547,-0.466,0.001
207.703,1.547,-0.466,0.001
210.205,1.547,-0.466,0.001
212.708,1.547,-0.466,0.001
215.21,1.547,-0.466,0.001
217.712,1.547,-0.466,0.001
220.215,1.547,-0.466,0.001
222.717,1.547,-0.466,0.001
225.22,1.547,-0.466,0.001
227.722,1.547,-0.466,0.001
230.225,1.547,-0.466,0.001
232.727,1.547,-0.466,0.001
235.229,1.547,-0.466,0.001
237.732,1.547,-0.466,0.001
240.234,1.547,-0.466,0.001
242.737,1.547,-0.466,0.001
245.239,1.547,-0.466,0.001
247.742,1.420,-0.629,0.097
250.244,1.420,-0.629,0.097
252.747,1.420,-0.629,0.097
255.249,1.420,-0.629,0.097
257.751,1.420,-0.629,0.097
260.254,1.420,-0.629,0.097
262.756,1.420,-0.629,0.097
265.259,1.420,-0.629,0.097
267.761,1.420,-0.629,0.097
270.264,1.420,-0.629,0.097
272.766,1.420,-0.629,0.097
275.269,1.420,-0.629,0.097
277.771,1.420,-0.629,0.097
280.273,1.420,-0.629,0.097
282.776,1.420,-0.629,0.097
285.278,1.420,-0.629,0.097
287.781,1.420,-0.629,0.097
290.283,1.420,-0.629,0.097
292.786,1.503,0.968,-0.028
295.288,1.503,0.968,-0.028
297.791,1.503,0.968,-0.028
300.293,1.503,0.968,-0.028
302.795,1.503,0.968,-0.028
305.298,1.503,0.968,-0.028
307.8,1.503,0.968,-0.028
310.303,1.503,0.968,-0.028
312.805,1.503,0.968,-0.028
315.308,1.503,0.968,-0.028
317.81,1.503,0.968,-0.028
320.312,1.503,0.968,-0.028
322.815,1.503,0.968,-0.028
325.317,1.503,0.968,-0.028
327.82,1.503,0.968,-0.028
330.322,1.503,0.968,-0.028
332.825,1.503,0.968,-0.028
335.327,1.503,0.968,-0.028
337.83,0.719,-0.153,0.206
340.332,0.719,-0.153,0.206
342.834,0.719,-0.153,0.206
345.337,0.719,-0.153,0.206
347.839,0.719,-0.153,0.206
350.342,0.719,-0.153,0.206
352.844,0.719,-0.153,0.206
355.347,0.719,-0.153,0.206
357.849,0.719,-0.153,0.206
360.352,0.719,-0.153,0.206
362.854,0.719,-0.153,0.206
365.356,0.719,-0.153,0.206
367.859,0.719,-0.153,0.206
370.361,0.719,-0.153,0.206
372.864,0.719,-0.153,0.206
375.366,0.719,-0.153,0.206
377.869,0.719,-0.153,0.206
380.371,0.719,-0.153,0.206
382.874,0.581,0.148,0.201
385.376,0.581,0.148,0.201
387.878,0.581,0.148,0.201
390.381,0.581,0.148,0.201
392.883,0.581,0.148,0.201
395.386,0.581,0.148,0.201
397.888,0.581,0.148,0.201
400.391,0.581,0.148,0.201
402.893,0.581,0.148,0.201
405.396,0.581,0.148,0.201
407.898,0.581,0.148,0.201
410.4,0.581,0.148,0.201
412.903,0.581,0.148,0.201
415.405,0.581,0.148,0.201
417.908,0.581,0.148,0.201
420.41,0.581,0.148,0.201
422.913,0.581,0.148,0.201
425.415,0.581,0.148,0.201
427.917,1.003,0.312,0.047
430.42,1.003,0.312,0.047
432.922,1.003,0.312,0.047
435.425,1.003,0.312,0.047
437.927,1.003,0.312,0.047
440.43,1.003,0.312,0.047
442.932,1.003,0.312,0.047
445.435,1.003,0.312,0.047
447.937,1.003,0.312,0.047
450.439,1.003,0.312,0.047
452.942,1.003,0.312,0.047
455.444,1.003,0.312,0.047
457.947,1.003,0.312,0.047
460.449,1.003,0.312,0.047
462.952,1.003,0.312,0.047
465.454,1.003,0.312,0.047
467.957,1.003,0.312,0.047
470.459,1.003,0.312,0.047
472.961,1.056,-0.438,-0.049
475.464,1.056,-0.438,-0.049
477.966,1.056,-0.438,-0.049
480.469,1.056,-0.438,-0.049
482.971,1.056,-0.438,-0.049
485.474,1.056,-0.438,-0.049
487.976,1.056,-0.438,-0.049
490.479,1.056,-0.438,-0.049
492.981,1.056,-0.438,-0.049
495.483,1.056,-0.438,-0.049
497.986,1.056,-0.438,-0.049
500.488,1.056,-0.438,-0.049
502.991,1.056,-0.438,-0.049
505.493,1.056,-0.438,-0.049
507.996,1.056,-0.438,-0.049
510.498,1.056,-0.438,-0.049
513.0,1.056,-0.438,-0.049
515.503,1.056,-0.438,-0.049
518.005,1.188,-0.165,-0.055
520.508,1.188,-0.165,-0.055
523.01,1.188,-0.165,-0.055
525.513,1.188,-0.165,-0.055
528.015,1.188,-0.165,-0.055
530.518,1.188,-0.165,-0.055
533.02,1.188,-0.165,-0.055
535.522,1.188,-0.165,-0.055
538.025,1.188,-0.165,-0.055
540.527,1.188,-0.165,-0.055
543.03,1.188,-0.165,-0.055
545.532,1.188,-0.165,-0.055
548.035,1.188,-0.165,-0.055
550.537,1.188,-0.165,-0.055
553.04,1.188,-0.165,-0.055
555.542,1.188,-0.165,-0.055
558.044,1.188,-0.165,-0.055
560.547,1.188,-0.165,-0.055
563.049,1.351,-0.219,0.196
565.552,1.351,-0.219,0.196
568.054,1.351,-0.219,0.196
570.557,1.351,-0.219,0.196
573.059,1.351,-0.219,0.196
575.562,1.351,-0.219,0.196
578.064,1.351,-0.219,0.196
580.566,1.351,-0.219,0.196
583.069,1.351,-0.219,0.196
585.571,1.351,-0.219,0.196
588.074,1.351,-0.219,0.196
590.576,1.351,-0.219,0.196
593.079,1.351,-0.219,0.196
595.581,1.351,-0.219,0.196
598.083,1.351,-0.219,0.196
600.586,1.351,-0.219,0.196
603.088,1.351,-0.219,0.196
605.591,1.351,-0.219,0.196
608.093,1.351,-0.219,0.196
610.596,1.021,-0.087,0.133
613.098,1.021,-0.087,0.133
615.601,1.021,-0.087,0.133
618.103,1.021,-0.087,0.133
620.605,1.021,-0.087,0.133
623.108,1.021,-0.087,0.133
625.61,1.021,-0.087,0.133
628.113,1.021,-0.087,0.133
630.615,1.021,-0.087,0.133
633.118,1.021,-0.087,0.133
635.62,1.021,-0.087,0.133
638.123,1.021,-0.087,0.133
640.625,1.021,-0.087,0.133
643.127,1.021,-0.087,0.133
645.63,1.021,-0.087,0.133
648.132,1.021,-0.087,0.133
650.635,1.021,-0.087,0.133
653.137,1.021,-0.087,0.133
655.64,0.853,0.757,0.394
658.142,0.853,0.757,0.394
660.645,0.853,0.757,0.394
663.147,0.853,0.757,0.394
665.649,0.853,0.757,0.394
668.152,0.853,0.757,0.394
670.654,0.853,0.757,0.394
673.157,0.853,0.757,0.394
675.659,0.853,0.757,0.394
678.162,0.853,0.757,0.394
680.664,0.853,0.757,0.394
683.167,0.853,0.757,0.394
685.669,0.853,0.757,0.394
688.171,0.853,0.757,0.394
690.674,0.853,0.757,0.394
693.176,0.853,0.757,0.394
695.679,0.853,0.757,0.394
698.181,0.853,0.757,0.394
700.684,1.069,0.636,0.090
703.186,1.069,0.636,0.090
705.688,1.069,0.636,0.090
708.191,1.069,0.636,0.090
710.693,1.069,0.636,0.090
713.196,1.069,0.636,0.090
715.698,1.069,0.636,0.090
718.201,1.069,0.636,0.090
720.703,1.069,0.636,0.090
723.206,1.069,0.636,0.090
725.708,1.069,0.636,0.090
728.21,1.069,0.636,0.090
730.713,1.069,0.636,0.090
733.215,1.069,0.636,0.090
735.718,1.069,0.636,0.090
738.22,1.069,0.636,0.090
740.723,1.069,0.636,0.090
743.225,1.069,0.636,0.090
745.728,1.069,0.636,0.090
748.23,0.722,-0.551,0.086
750.732,0.722,-0.551,0.086
753.235,0.722,-0.551,0.086
755.737,0.722,-0.551,0.086
758.24,0.722,-0.551,0.086
760.742,0.722,-0.551,0.086
763.245,0.722,-0.551,0.086
765.747,0.722,-0.551,0.086
768.25,0.722,-0.551,0.086
770.752,0.722,-0.551,0.086
773.254,0.722,-0.551,0.086
775.757,0.722,-0.551,0.086
778.259,0.722,-0.551,0.086
780.762,0.722,-0.551,0.086
783.264,0.722,-0.551,0.086
785.767,0.722,-0.551,0.086
788.269,0.722,-0.551,0.086
790.771,0.722,-0.551,0.086
793.274,0.873,0.387,0.405
795.776,0.873,0.387,0.405
798.279,0.873,0.387,0.405
800.781,0.873,0.387,0.405
803.284,0.873,0.387,0.405
805.786,0.873,0.387,0.405
808.289,0.873,0.387,0.405
810.791,0.873,0.387,0.405
813.293,1.159,-0.258,-0.332
815.796,1.159,-0.258,-0.332
818.298,1.120,-1.098,-0.140
820.801,1.175,-0.461,0.199
823.303,1.443,0.034,-0.071
825.806,0.770,0.137,0.422
828.308,0.732,1.132,0.387
830.811,0.420,0.017,0.074
833.313,0.655,-0.104,0.156
835.815,1.574,0.284,-0.298
838.318,1.527,-0.560,-0.110
840.82,1.539,-0.820,0.061
843.323,1.662,0.769,-0.233
845.825,0.709,-0.213,0.336
848.328,0.592,0.234,0.171
850.83,0.987,0.352,0.050
853.333,1.087,-0.388,-0.022
855.835,1.207,-0.220,-0.063
858.337,1.207,-0.220,-0.063
860.84,1.327,-0.182,0.264
863.342,0.956,-0.044,0.196
865.845,0.819,0.704,0.398
868.347,1.061,0.702,0.258
870.85,0.717,-0.520,0.246
873.352,0.871,0.328,0.331
875.854,1.132,-0.247,-0.346
878.357,1.087,-1.060,-0.156
880.859,1.163,-0.403,0.155
883.362,1.503,0.027,-0.062
885.864,0.769,0.065,0.342
888.367,0.714,1.137,0.344
890.869,0.415,0.102,0.069
893.372,0.694,-0.118,0.178
895.874,1.610,0.210,-0.352
898.376,1.515,-0.536,-0.082
900.879,1.515,-0.536,-0.082
903.381,1.561,-0.790,0.066
905.884,1.637,0.785,-0.241
908.386,0.711,-0.179,0.313
910.889,0.569,0.253,0.172
913.391,1.007,0.340,0.113
915.894,1.047,-0.438,-0.030
918.396,1.195,-0.160,-0.071
920.898,1.362,-0.174,0.240
923.401,0.978,-0.108,0.146
925.903,0.831,0.621,0.331
928.406,1.062,0.767,0.296
930.908,0.715,-0.438,0.203
933.411,0.847,0.326,0.331
935.913,1.168,-0.266,-0.321
938.416,1.128,-1.028,-0.158
940.918,1.157,-0.461,0.137
943.42,1.157,-0.461,0.137
945.923,1.526,0.050,-0.114
948.425,0.748,0.055,0.562
950.928,0.672,1.076,0.271
953.43,0.428,0.168,-0.010
955.933,0.754,-0.160,0.206
958.435,1.602,0.242,-0.320
960.938,1.553,-0.431,-0.046
963.44,1.553,-0.804,0.055
965.942,1.523,0.796,-0.075
968.445,0.695,-0.110,0.241
970.947,0.612,0.212,0.162
973.45,1.074,0.351,0.043
975.952,1.097,-0.535,-0.169
978.455,1.139,-0.288,0.006
980.957,1.253,-0.082,0.273
983.459,0.920,-0.069,0.140
985.962,0.920,-0.069,0.140
988.464,0.777,0.484,0.319
990.967,1.077,0.931,0.271
993.469,0.777,-0.359,0.152
995.972,0.795,0.274,0.249
998.474,1.164,-0.232,-0.307
1000.977,1.167,-0.978,-0.191
1003.479,1.201,-0.562,0.160
1005.981,1.577,0.006,-0.143
1008.484,0.746,0.023,0.530
1010.986,0.678,1.144,0.288
1013.489,0.461,0.128,-0.060
1015.991,0.759,-0.196,0.230
1018.494,1.579,0.293,-0.309
1020.996,1.530,-0.372,-0.057
1023.499,1.532,-0.790,0.117
1026.001,1.514,0.780,-0.064
1028.503,0.759,-0.147,0.229
1031.006,0.759,-0.147,0.229
1033.508,0.605,0.171,0.094
1036.011,1.019,0.358,0.152
1038.513,1.081,-0.508,-0.184
1041.016,1.134,-0.260,0.030
1043.518,1.246,-0.148,0.246
1046.021,0.917,-0.093,0.146
1048.523,0.795,0.511,0.301
1051.025,1.062,0.980,0.273
1053.528,0.714,-0.437,0.193
1056.03,0.727,0.191,0.219
1058.533,1.160,-0.153,-0.321
1061.035,1.149,-0.921,-0.164
1063.538,1.234,-0.595,0.126
1066.04,1.672,-0.001,-0.235
1068.542,0.774,0.037,0.499
1071.045,0.601,1.090,0.309
1073.547,0.601,1.090,0.309
1076.05,0.468,0.222,-0.057
1078.552,0.789,-0.259,0.222
1081.055,1.568,0.320,-0.359
1083.557,1.569,-0.344,-0.031
1086.06,1.503,-0.786,0.095
1088.562,1.472,0.902,0.022
1091.064,0.769,-0.075,0.173
1093.567,0.632,0.074,0.109
1096.069,1.051,0.274,0.156
1098.572,1.062,-0.508,-0.247
1101.074,1.097,-0.263,0.068
1103.577,1.227,-0.149,0.217
1106.079,0.973,-0.150,0.120
1108.582,0.788,0.407,0.232
1111.084,1.047,1.126,0.384
1113.586,0.616,-0.466,0.148
1116.089,0.616,-0.466,0.148
1118.591,0.753,0.202,0.149
1121.094,1.279,-0.024,-0.260
1123.596,1.188,-0.938,-0.147
1126.099,1.269,-0.624,0.110
1128.601,1.726,0.098,-0.289
1131.104,0.722,0.008,0.609
1133.606,0.584,0.995,0.248
1136.108,0.519,0.131,-0.149
1138.611,0.784,-0.266,0.284
1141.113,1.523,0.417,-0.238
1143.616,1.570,-0.383,-0.024
1146.118,1.421,-0.724,0.076
1148.621,1.367,0.936,0.140
1151.123,0.804,0.029,0.117
1153.625,0.675,-0.002,0.155
1156.128,1.115,0.270,0.152
1158.63,1.115,0.270,0.152
1161.133,1.100,-0.477,-0.312
1163.635,1.055,-0.395,0.094
1166.138,1.140,-0.177,0.201
1168.64,0.992,-0.145,0.128
1171.143,0.782,0.387,0.202
1173.645,1.059,1.163,0.367
1176.147,0.609,-0.426,0.155
1178.65,0.702,0.230,0.156
1181.152,1.297,0.070,-0.271
1183.655,1.227,-0.939,-0.188
1186.157,1.336,-0.777,0.093
1188.66,1.780,0.128,-0.372
1191.162,0.714,0.053,0.562
1193.665,0.519,0.859,0.287
1196.167,0.581,0.163,-0.133
1198.669,0.882,-0.212,0.257
1201.172,0.882,-0.212,0.257
1203.674,1.496,0.312,-0.316
1206.177,1.546,-0.305,-0.008
1208.679,1.397,-0.688,0.038
1211.182,1.336,0.996,0.210
1213.684,0.827,0.014,0.101
1216.187,0.665,-0.124,0.230
1218.689,1.027,0.254,0.298
1221.191,1.074,-0.414,-0.328
1223.694,1.087,-0.501,0.065
1226.196,1.155,-0.231,0.180
1228.699,0.990,-0.091,0.140
1231.201,0.765,0.378,0.175
1233.704,1.024,1.256,0.473
1236.206,0.550,-0.442,0.098
1238.708,0.680,0.199,0.121
1241.211,1.324,0.123,-0.259
1243.713,1.324,0.123,-0.259
1246.216,1.277,-0.885,-0.220
1248.718,1.409,-0.828,0.074
1251.221,1.842,0.203,-0.431
1253.723,0.690,0.027,0.616
1256.226,0.503,0.773,0.256
1258.728,0.645,0.269,-0.074
1261.23,0.915,-0.203,0.288
1263.733,1.485,0.226,-0.325
1266.235,1.538,-0.372,0.085
1268.738,1.331,-0.595,0.056
1271.24,1.232,1.042,0.327
1273.743,0.882,0.054,0.038
1276.245,0.722,-0.281,0.280
1278.748,1.069,0.344,0.218
1281.25,1.056,-0.361,-0.388
1283.752,1.068,-0.603,0.084
1286.255,1.118,-0.258,0.149
1288.757,1.118,-0.258,0.149
1291.26,1.038,-0.091,0.123
1293.762,0.782,0.276,0.179
1296.265,0.952,1.297,0.456
1298.767,0.501,-0.298,0.087
1301.27,0.672,0.144,0.105
1303.772,1.440,0.179,-0.285
1306.274,1.375,-0.813,-0.176
1308.777,1.516,-0.966,0.045
1311.279,1.867,0.496,-0.473
1313.782,0.636,-0.082,0.538
1316.284,0.457,0.503,0.230
1318.787,0.834,0.326,-0.028
1321.289,1.001,-0.231,0.249
1323.792,1.359,0.118,-0.243
1326.294,1.491,-0.313,0.134
1328.796,1.491,-0.313,0.134
1331.299,1.186,-0.395,0.068
1333.801,1.015,0.944,0.431
1336.304,0.984,0.280,0.038
1338.806,0.753,-0.356,0.178
1341.309,1.003,0.449,0.378
1343.811,1.062,-0.426,-0.408
1346.313,1.030,-0.863,-0.016
1348.816,1.077,-0.327,0.136
1351.318,1.154,-0.035,0.097
1353.821,0.776,0.170,0.312
1356.323,0.909,1.242,0.359
1358.826,0.499,-0.197,0.071
1361.328,0.654,0.124,0.148
1363.831,1.516,0.280,-0.263
1366.333,1.423,-0.770,-0.141
1368.835,1.423,-0.770,-0.141
1371.338,1.538,-0.919,0.043
1373.84,1.766,0.624,-0.372
1376.343,0.615,-0.149,0.452
1378.845,0.492,0.425,0.273
1381.348,0.940,0.390,0.001
1383.85,1.015,-0.388,0.109
1386.353,1.246,-0.070,-0.145
1388.855,1.398,-0.236,0.188
1391.357,1.019,-0.160,0.095
1393.86,0.866,0.765,0.366
1396.362,1.071,0.594,0.188
1398.865,0.740,-0.480,0.257
1401.367,0.912,0.454,0.347
1403.87,1.121,-0.289,-0.366
1406.372,1.105,-1.075,-0.126
1408.875,1.148,-0.469,0.155
1411.377,1.148,-0.469,0.155
1413.879,1.479,-0.008,-0.093
1416.382,0.753,0.124,0.387
1418.884,0.732,1.141,0.284
1421.387,0.415,0.140,0.038
1423.889,0.734,-0.106,0.188
1426.392,1.601,0.279,-0.356
1428.894,1.495,-0.606,-0.078
1431.396,1.512,-0.828,0.069
1433.899,1.594,0.784,-0.149
1436.401,0.699,-0.247,0.319
1438.904,0.579,0.233,0.258
1441.406,1.023,0.428,0.026
1443.909,1.047,-0.434,-0.055
1446.411,1.194,-0.188,-0.056
1448.914,1.355,-0.191,0.204
1451.416,0.968,-0.146,0.092
1453.918,0.968,-0.146,0.092
1456.421,0.800,0.628,0.363
1458.923,1.079,0.836,0.211
1461.426,0.748,-0.424,0.156
1463.928,0.824,0.345,0.254
1466.431,1.146,-0.200,-0.306
1468.933,1.065,-1.064,-0.156
1471.436,1.172,-0.502,0.167
1473.938,1.637,0.077,-0.200
1476.44,0.769,-0.004,0.440
1478.943,0.659,0.967,0.321
1481.445,0.443,0.318,-0.010
1483.948,0.777,-0.158,0.237
1486.45,1.612,0.256,-0.360
1488.953,1.577,-0.485,0.000
1491.455,1.480,-0.751,0.043
1493.958,1.480,-0.751,0.043
1496.46,1.451,0.913,0.063
1498.962,0.788,-0.122,0.155
1501.465,0.663,0.047,0.256
1503.967,1.046,0.335,0.173
1506.47,0.996,-0.479,-0.270
1508.972,1.037,-0.434,0.062
1511.475,1.155,-0.122,0.237
1513.977,1.003,-0.087,0.129
1516.479,0.790,0.288,0.179
1518.982,1.061,1.148,0.378
1521.484,0.616,-0.302,0.172
1523.987,0.701,0.266,0.134
1526.489,1.295,-0.057,-0.327
1528.992,1.241,-1.010,-0.247
1531.494,1.329,-0.695,0.089
1533.997,1.800,0.223,-0.376
1536.499,1.800,0.223,-0.376
1539.001,0.756,-0.056,0.511
1541.504,0.565,0.873,0.280
1544.006,0.559,0.293,-0.062
1546.509,0.852,-0.226,0.280
1549.011,1.563,0.226,-0.324
1551.514,1.609,-0.348,0.032
1554.016,1.386,-0.618,0.045
1556.519,1.240,0.929,0.246
1559.021,0.873,-0.020,0.086
1561.523,0.688,0.027,0.188
1564.026,1.030,0.334,0.226
1566.528,1.015,-0.533,-0.372
1569.031,1.034,-0.562,0.061
1571.533,1.131,-0.141,0.206
1574.036,1.030,-0.067,0.144
1576.538,0.740,0.202,0.121
1579.041,0.740,0.202,0.121
1581.543,1.023,1.249,0.478
1584.045,0.603,-0.305,0.210
1586.548,0.696,0.188,0.090
1589.05,1.336,0.032,-0.289
1591.553,1.249,-0.938,-0.188
1594.055,1.357,-0.798,0.087
1596.558,1.826,0.184,-0.431
1599.06,0.722,-0.009,0.616
1601.562,0.530,0.922,0.262
1604.065,0.587,0.279,-0.102
1606.567,0.862,-0.283,0.289
1609.07,1.517,0.240,-0.325
1611.572,1.574,-0.289,0.055
1614.075,1.331,-0.594,0.062
1616.577,1.242,0.926,0.288
1619.08,0.913,0.056,0.039
1621.582,0.913,0.056,0.039
1624.084,0.756,-0.171,0.355
1626.587,1.053,0.328,0.190
1629.089,0.996,-0.501,-0.395
1631.592,1.007,-0.608,0.073
1634.094,1.123,-0.212,0.222
1636.597,1.053,-0.125,0.117
1639.099,0.769,0.222,0.225
1641.602,0.956,1.412,0.438
1644.104,0.587,-0.234,0.097
1646.606,0.667,0.105,0.121
1649.109,1.384,0.079,-0.302
1651.611,1.280,-0.819,-0.204
1654.114,1.404,-0.821,0.077
1656.616,1.862,0.297,-0.446
1659.119,0.702,-0.035,0.503
1661.621,0.507,0.722,0.246
1664.124,0.507,0.722,0.246
1666.626,0.715,0.315,-0.116
1669.128,0.953,-0.328,0.234
1671.631,1.476,0.190,-0.283
1674.133,1.527,-0.305,0.076
1676.636,1.228,-0.585,0.048
1679.138,1.132,0.977,0.366
1681.641,0.965,0.262,0.131
1684.143,0.759,-0.263,0.184
1686.646,1.030,0.311,0.319
1689.148,0.991,-0.500,-0.368
1691.65,1.012,-0.632,0.014
1694.153,1.101,-0.216,0.187
1696.655,1.107,-0.173,0.094
1699.158,0.769,0.190,0.181
1701.66,0.984,1.344,0.487
1704.163,0.530,-0.275,0.152
1706.665,0.530,-0.275,0.152
1709.167,0.688,0.105,0.090
1711.67,1.451,0.159,-0.316
1714.172,1.345,-0.876,-0.221
1716.675,1.452,-0.891,0.102
1719.177,1.844,0.343,-0.421
1721.68,0.617,0.019,0.548
1724.182,0.476,0.652,0.246
1726.685,0.757,0.240,-0.066
1729.187,0.952,-0.328,0.246
1731.689,1.398,0.190,-0.238
1734.192,1.515,-0.257,0.148
1736.694,1.202,-0.470,0.043
1739.197,1.030,0.906,0.371
1741.699,1.022,0.359,0.062
1744.202,0.767,-0.307,0.113
1746.704,0.995,0.352,0.366
1749.207,0.995,0.352,0.366
1751.709,1.069,-0.466,-0.390
1754.211,1.012,-0.852,-0.001
1756.714,1.070,-0.354,0.188
1759.216,1.175,-0.098,0.051
1761.719,0.772,0.246,0.296
1764.221,0.922,1.336,0.350
1766.724,0.457,-0.242,0.120
1769.226,0.637,0.048,0.084
1771.729,1.523,0.315,-0.281
1774.231,1.430,-0.688,-0.138
1776.733,1.542,-1.040,0.046
1779.236,1.843,0.542,-0.399
1781.738,0.623,-0.044,0.384
1784.241,0.487,0.503,0.225
1786.743,0.913,0.267,0.086
1789.246,1.029,-0.368,0.155
1791.748,1.029,-0.368,0.155
1794.25,1.284,0.076,-0.142
1796.753,1.413,-0.255,0.193
1799.255,1.062,-0.291,0.097
1801.758,0.905,0.922,0.484
1804.26,1.071,0.477,0.117
1806.763,0.765,-0.484,0.288
1809.265,0.930,0.312,0.397
1811.768,1.059,-0.337,-0.388
1814.27,1.047,-0.930,-0.080
1816.772,1.116,-0.453,0.172
1819.275,1.343,-0.070,0.046
1821.777,0.762,0.186,0.378
1824.28,0.845,1.336,0.359
1826.782,0.430,-0.124,0.029
1829.285,0.681,-0.020,0.194
1831.787,1.569,0.290,-0.278
1834.29,1.569,0.290,-0.278
1836.792,1.454,-0.633,-0.195
1839.294,1.531,-0.952,0.050
1841.797,1.719,0.781,-0.278
1844.299,0.732,-0.104,0.324
1846.802,0.534,0.258,0.175
1849.304,0.937,0.340,-0.020
1851.807,1.056,-0.345,-0.031
1854.309,1.187,-0.101,-0.077
1856.812,1.398,-0.274,0.179
1859.314,1.068,-0.188,0.120
1861.816,0.824,0.670,0.390
1864.319,1.042,0.887,0.297
1866.821,0.722,-0.578,0.248
1869.324,0.882,0.350,0.298
1871.826,1.128,-0.207,-0.335
1874.329,1.078,-1.046,-0.148
1876.831,1.078,-1.046,-0.148
1879.333,1.180,-0.563,0.140
1881.836,1.604,0.094,-0.149
1884.338,0.797,0.077,0.493
1886.841,0.654,0.984,0.337
1889.343,0.396,0.117,-0.012
1891.846,0.725,-0.095,0.258
1894.348,1.617,0.324,-0.273
1896.851,1.559,-0.575,-0.113
1899.353,1.496,-0.868,0.092
1901.855,1.515,0.970,-0.015
1904.358,0.746,-0.055,0.188
1906.86,0.634,0.055,0.086
1909.363,1.055,0.296,0.116
1911.865,1.034,-0.438,-0.169
1914.368,1.095,-0.297,0.027
1916.87,1.095,-0.297,0.027
1919.373,1.273,-0.219,0.202
1921.875,1.001,-0.051,0.144
1924.377,0.800,0.512,0.288
1926.88,1.045,0.992,0.329
1929.382,0.709,-0.429,0.214
1931.885,0.757,0.348,0.217
1934.387,1.145,-0.158,-0.341
1936.89,1.124,-1.110,-0.165
1939.392,1.235,-0.609,0.121
1941.895,1.640,0.137,-0.220
1944.397,0.756,0.129,0.484
1946.899,0.621,0.931,0.306
1949.402,0.405,0.101,-0.028
1951.904,0.777,-0.098,0.234
1954.407,1.600,0.335,-0.351
1956.909,1.581,-0.497,-0.062
1959.412,1.469,-0.729,0.094
1961.914,1.469,-0.729,0.094
1964.417,1.490,0.920,0.023
1966.919,0.745,-0.140,0.155
1969.421,0.640,0.019,0.215
1971.924,1.098,0.351,0.105
1974.426,1.039,-0.463,-0.223
1976.929,1.089,-0.470,0.047
1979.431,1.190,-0.181,0.232
1981.934,0.962,0.016,0.168
1984.436,0.737,0.436,0.262
1986.938,1.097,1.124,0.309
1989.441,0.659,-0.395,0.105
1991.943,0.728,0.248,0.175
1994.446,1.202,-0.024,-0.289
1996.948,1.181,-0.985,-0.203
1999.451,1.336,-0.681,0.133
2001.953,1.336,-0.681,0.133
2004.456,1.827,0.209,-0.354
2006.958,0.722,0.006,0.484
2009.46,0.539,0.852,0.301
2011.963,0.573,0.315,-0.067
2014.465,0.847,-0.236,0.282
2016.968,1.550,0.178,-0.343
2019.47,1.545,-0.406,0.011
2021.973,1.334,-0.528,0.066
2024.475,1.282,1.038,0.222
2026.978,0.868,-0.066,0.046
2029.48,0.730,-0.072,0.215
2031.982,1.043,0.331,0.202
2034.485,1.030,-0.477,-0.328
2036.987,1.069,-0.544,0.027
2039.49,1.163,-0.173,0.230
2041.992,0.964,-0.062,0.163
2044.495,0.715,0.279,0.188
2046.997,0.715,0.279,0.188
2049.5,1.035,1.144,0.398
2052.002,0.612,-0.312,0.201
2054.504,0.737,0.234,0.121
2057.007,1.287,-0.087,-0.312
2059.509,1.211,-0.963,-0.195
2062.012,1.327,-0.655,0.112
2064.514,1.824,0.262,-0.379
2067.017,0.694,-0.044,0.517
2069.519,0.500,0.771,0.293
2072.021,0.597,0.273,-0.095
2074.524,0.881,-0.243,0.249
2077.026,1.597,0.170,-0.322
2079.529,1.590,-0.343,0.022
2082.031,1.296,-0.539,0.090
2084.534,1.219,0.972,0.297
2087.036,1.219,0.972,0.297
2089.539,0.878,0.059,0.021
2092.041,0.712,-0.146,0.297
2094.543,1.089,0.327,0.188
2097.046,1.047,-0.570,-0.376
2099.548,1.043,-0.641,0.076
2102.051,1.154,-0.149,0.195
2104.553,1.032,-0.087,0.108
2107.056,0.766,0.184,0.195
2109.558,0.990,1.249,0.461
2112.061,0.565,-0.205,0.191
2114.563,0.624,0.133,0.074
2117.065,1.415,0.065,-0.304
2119.568,1.340,-0.828,-0.189
2122.07,1.482,-0.837,0.038
2124.573,1.886,0.409,-0.426
2127.075,0.632,-0.079,0.506
2129.578,0.632,-0.079,0.506
2132.08,0.462,0.656,0.237
2134.583,0.800,0.319,-0.078
2137.085,0.991,-0.348,0.230
2139.587,1.434,0.160,-0.290
2142.09,1.547,-0.174,0.144
2144.592,1.242,-0.473,0.040
2147.095,1.117,0.925,0.332
2149.597,0.972,0.154,0.023
2152.1,0.738,-0.185,0.087
2154.602,0.991,0.336,0.319
2157.104,1.030,-0.555,-0.393
2159.607,1.034,-0.710,0.092
2162.109,1.124,-0.181,0.211
2164.612,1.062,-0.039,0.101
2167.114,0.751,0.155,0.139
2169.617,0.913,1.309,0.438
2172.119,0.913,1.309,0.438
2174.622,0.482,-0.195,0.077
2177.124,0.660,-0.016,0.108
2179.626,1.524,0.180,-0.291
2182.129,1.402,-0.608,-0.185
2184.631,1.523,-0.913,0.062
2187.134,1.806,0.488,-0.445
2189.636,0.688,-0.133,0.434
2192.139,0.508,0.514,0.225
2194.641,0.894,0.350,-0.010
2197.144,1.003,-0.438,0.094
2199.646,1.311,-0.008,-0.140
2202.148,1.496,-0.153,0.159
2204.651,1.094,-0.228,0.069
2207.153,0.887,0.703,0.417
2209.656,1.050,0.592,0.076
2212.158,1.050,0.592,0.076
2214.661,0.764,-0.473,0.147
2217.163,0.943,0.323,0.327
2219.666,1.090,-0.327,-0.360
2222.168,1.007,-0.891,-0.079
2224.67,1.112,-0.396,0.165
2227.173,1.452,-0.087,-0.024
2229.675,0.797,0.062,0.382
2232.178,0.779,1.248,0.386
2234.68,0.431,-0.005,0.059
2237.183,0.690,-0.141,0.139
2239.685,1.644,0.295,-0.340
2242.188,1.501,-0.504,-0.135
2244.69,1.499,-0.930,0.062
2247.192,1.639,0.715,-0.267
2249.695,0.715,-0.056,0.332
2252.197,0.547,0.218,0.184
2254.7,0.913,0.298,-0.057
2257.202,0.913,0.298,-0.057
2259.705,0.987,-0.391,0.065
2262.207,1.257,0.043,-0.113
2264.709,1.476,-0.192,0.159
2267.212,1.100,-0.298,0.090
2269.714,0.898,0.742,0.387
2272.217,1.046,0.660,0.110
2274.719,0.784,-0.437,0.155
2277.222,0.945,0.269,0.324
2279.724,1.061,-0.312,-0.376
2282.227,1.007,-0.883,-0.069
2284.729,1.078,-0.388,0.164
2287.231,1.409,-0.072,0.009
2289.734,0.824,0.077,0.420
2292.236,0.773,1.190,0.387
2294.739,0.382,-0.025,0.050
2297.241,0.688,-0.075,0.148
2299.744,0.688,-0.075,0.148
2302.246,1.632,0.375,-0.275
2304.749,1.521,-0.540,-0.143
2307.251,1.561,-0.950,0.032
2309.753,1.665,0.688,-0.202
2312.256,0.714,-0.069,0.365
2314.758,0.547,0.242,0.077
2317.261,0.976,0.209,0.100
2319.763,1.001,-0.435,-0.035
2322.266,1.149,-0.031,-0.035
2324.768,1.367,-0.141,0.222
2327.271,1.059,-0.213,0.086
2329.773,0.845,0.671,0.375
2332.275,1.056,0.798,0.210
2334.778,0.704,-0.536,0.230
2337.28,0.840,0.284,0.331
2339.783,1.131,-0.195,-0.361
2342.285,1.131,-0.195,-0.361
2344.788,1.090,-1.016,-0.093
2347.29,1.156,-0.562,0.140
2349.792,1.529,-0.025,-0.105
2352.295,0.809,0.132,0.546
2354.797,0.719,1.141,0.284
2357.3,0.421,0.048,0.050
2359.802,0.688,-0.141,0.257
2362.305,1.584,0.367,-0.299
2364.807,1.527,-0.471,-0.044
2367.31,1.538,-0.910,0.065
2369.812,1.621,0.827,-0.116
2372.314,0.737,-0.143,0.297
2374.817,0.618,0.165,0.207
2377.319,1.022,0.298,-0.040
2379.822,1.081,-0.345,-0.082
2382.324,1.159,-0.257,-0.005
2384.827,1.159,-0.257,-0.005
2387.329,1.290,-0.191,0.193
2389.832,0.969,-0.155,0.144
2392.334,0.784,0.593,0.327
2394.836,1.055,0.987,0.272
2397.339,0.737,-0.507,0.110
2399.841,0.852,0.290,0.207
2402.344,1.146,-0.080,-0.288
2404.846,1.112,-0.977,-0.173
2407.349,1.188,-0.650,0.152
2409.851,1.644,0.055,-0.180
2412.354,0.781,0.095,0.504
2414.856,0.628,0.992,0.297
2417.358,0.460,0.132,-0.048
2419.861,0.777,-0.106,0.249
2422.363,1.594,0.319,-0.299
2424.866,1.556,-0.477,-0.066
2427.368,1.556,-0.477,-0.066
2429.871,1.507,-0.838,0.037
2432.373,1.515,0.938,0.007
2434.875,0.772,-0.082,0.193
2437.378,0.690,0.062,0.065
2439.88,1.037,0.253,0.146
2442.383,1.011,-0.378,-0.153
2444.885,1.084,-0.275,0.043
2447.388,1.261,-0.246,0.226
2449.89,0.977,-0.125,0.128
2452.393,0.759,0.477,0.301
2454.895,1.027,1.042,0.371
2457.397,0.648,-0.450,0.242
2459.9,0.824,0.353,0.176
2462.402,1.227,-0.078,-0.324
2464.905,1.148,-1.031,-0.189
2467.407,1.226,-0.680,0.147
2469.91,1.226,-0.680,0.147
2472.412,1.730,0.172,-0.320
2474.915,0.735,0.048,0.590
2477.417,0.555,0.788,0.218
2479.919,0.521,0.225,-0.093
2482.422,0.827,-0.077,0.331
2484.924,1.632,0.305,-0.355
2487.427,1.601,-0.462,-0.024
2489.929,1.443,-0.720,0.032
2492.432,1.378,0.998,0.168
2494.934,0.779,-0.028,0.117
2497.437,0.684,-0.074,0.194
2499.939,1.086,0.320,0.171
2502.441,1.019,-0.447,-0.306
2504.944,1.055,-0.439,0.085
2507.446,1.211,-0.156,0.199
2509.949,0.976,0.004,0.199
2512.451,0.976,0.004,0.199
2514.954,0.756,0.352,0.312
2517.456,1.024,1.132,0.315
2519.958,0.639,-0.372,0.128
2522.461,0.720,0.304,0.163
2524.963,1.237,-0.004,-0.310
2527.466,1.225,-1.039,-0.231
2529.968,1.329,-0.777,0.100
2532.471,1.788,0.242,-0.345
2534.973,0.710,0.019,0.529
2537.476,0.543,0.815,0.281
2539.978,0.550,0.281,-0.133
2542.48,0.876,-0.172,0.288
2544.983,1.543,0.242,-0.363
2547.485,1.571,-0.391,-0.022
2549.988,1.394,-0.601,0.054
2552.49,1.315,0.965,0.180
2554.993,0.840,-0.062,0.059
2557.495,0.840,-0.062,0.059
2559.998,0.711,-0.099,0.171
2559.998,0.458,-2.000,0.514
2562.5,1.999,0.594,0.407
2565.003,0.701,-1.062,0.395
2567.505,0.912,0.023,0.468
2570.0080000000003,1.584,-1.223,-0.007
2572.51,1.999,0.133,-0.148
2575.0130000000004,1.109,0.702,-0.044
2577.5150000000003,0.835,-0.191,0.227
2580.0180000000005,1.109,0.355,0.090
2582.5200000000004,1.065,-0.414,0.154
2585.0220000000004,1.436,0.095,-0.268
2587.5250000000005,1.543,-0.203,0.077
2590.0270000000005,1.269,-0.569,0.038
2592.5300000000007,1.273,0.925,0.269
2595.0320000000006,1.273,0.925,0.269
2597.5350000000008,0.819,-0.031,0.077
2600.0370000000007,0.699,0.007,0.256
2602.540000000001,1.055,0.300,0.144
2605.042000000001,1.006,-0.516,-0.252
2607.544000000001,1.112,-0.356,0.112
2610.047000000001,1.248,-0.138,0.171
2612.549000000001,0.934,-0.022,0.223
2615.052000000001,0.734,0.351,0.258
2617.554000000001,1.019,1.210,0.324
2620.057000000001,0.626,-0.390,0.112
2622.559000000001,0.742,0.168,0.107
2625.061000000001,1.246,-0.060,-0.314
2627.564000000001,1.175,-0.931,-0.228
2630.066000000001,1.343,-0.716,0.094
2632.5690000000013,1.818,0.095,-0.369
2635.0710000000013,0.771,-0.016,0.601
2637.5740000000014,0.551,0.897,0.288
2640.0760000000014,0.551,0.897,0.288
2642.5790000000015,0.465,0.313,-0.079
2645.0810000000015,0.867,-0.273,0.241
2647.5830000000014,1.615,0.265,-0.324
2650.0860000000016,1.538,-0.360,0.012
2652.5880000000016,1.404,-0.724,-0.031
2655.0910000000017,1.390,0.926,0.188
2657.5930000000017,0.824,0.030,0.123
2660.096000000002,0.707,-0.020,0.128
2662.598000000002,1.092,0.199,0.171
2665.101000000002,1.027,-0.411,-0.235
2667.603000000002,1.092,-0.385,0.095
2670.105000000002,1.203,-0.143,0.183
2672.608000000002,0.915,-0.075,0.234
2675.110000000002,0.730,0.312,0.264
2677.613000000002,1.014,1.253,0.434
2680.115000000002,0.584,-0.312,0.101
2682.618000000002,0.584,-0.312,0.101
2685.120000000002,0.714,0.134,0.095
2687.6230000000023,1.267,-0.044,-0.278
2690.1250000000023,1.211,-0.885,-0.216
2692.627000000002,1.360,-0.781,0.149
2695.1300000000024,1.816,0.190,-0.435
2697.6320000000023,0.766,0.107,0.562
2700.1350000000025,0.569,0.715,0.235
2702.6370000000024,0.545,0.277,-0.059
2705.1400000000026,0.875,-0.263,0.209
2707.6420000000026,1.515,0.266,-0.356
2710.1440000000025,1.492,-0.298,0.081
2712.6470000000027,1.265,-0.572,-0.004
2715.1490000000026,1.188,0.934,0.440
2717.6520000000028,0.892,0.206,-0.008
2720.1540000000027,0.770,-0.174,0.165
2722.657000000003,1.103,0.219,0.237
2725.159000000003,1.103,0.219,0.237
2727.662000000003,1.037,-0.391,-0.419
2730.164000000003,1.061,-0.692,0.101
2732.666000000003,1.117,-0.207,0.187
2735.169000000003,1.043,-0.059,0.202
2737.671000000003,0.757,0.257,0.094
2740.174000000003,0.930,1.309,0.534
2742.676000000003,0.484,-0.223,0.095
2745.1790000000033,0.668,0.110,0.073
2747.681000000003,1.413,0.164,-0.317
2750.1840000000034,1.293,-0.841,-0.219
2752.6860000000033,1.490,-1.020,0.074
2755.1880000000033,1.905,0.318,-0.478
2757.6910000000034,0.717,0.030,0.566
2760.1930000000034,0.487,0.654,0.227
2762.6960000000036,0.655,0.264,-0.040
2765.1980000000035,0.943,-0.257,0.227
2767.7010000000037,0.943,-0.257,0.227
2770.2030000000036,1.469,0.234,-0.268
2772.7060000000038,1.468,-0.235,0.076
2775.2080000000037,1.218,-0.518,-0.013
2777.7100000000037,1.179,0.960,0.492
2780.213000000004,0.898,0.219,0.045
2782.715000000004,0.777,-0.306,0.211
2785.218000000004,1.086,0.249,0.251
2787.720000000004,1.019,-0.348,-0.363
2790.223000000004,1.023,-0.733,0.023
2792.725000000004,1.140,-0.298,0.178
2795.227000000004,1.032,-0.048,0.184
2797.730000000004,0.737,0.281,0.112
2800.232000000004,0.960,1.262,0.503
2802.735000000004,0.507,-0.223,0.050
2805.237000000004,0.645,0.074,0.107
2807.7400000000043,1.378,0.160,-0.274
2810.2420000000043,1.378,0.160,-0.274
2812.7450000000044,1.335,-0.727,-0.231
2815.2470000000044,1.493,-0.981,0.071
2817.7490000000043,1.868,0.448,-0.446
2820.2520000000045,0.699,-0.002,0.562
2822.7540000000045,0.503,0.543,0.269
2825.2570000000046,0.840,0.335,-0.039
2827.7590000000046,0.991,-0.227,0.207
2830.2620000000047,1.402,0.074,-0.260
2832.7640000000047,1.467,-0.329,0.148
2835.267000000005,1.136,-0.395,0.034
2837.769000000005,1.014,0.925,0.519
2840.2710000000047,0.988,0.449,0.063
2842.774000000005,0.779,-0.460,0.209
2845.276000000005,0.993,0.355,0.303
2847.779000000005,1.045,-0.345,-0.377
2850.281000000005,1.045,-0.345,-0.377
2852.784000000005,1.039,-0.830,-0.036
2855.286000000005,1.100,-0.391,0.148
2857.789000000005,1.218,-0.038,0.107
2860.291000000005,0.788,0.160,0.235
2862.793000000005,0.896,1.257,0.386
2865.2960000000053,0.390,-0.060,0.038
2867.7980000000052,0.678,0.043,0.155
2870.3010000000054,1.545,0.206,-0.320
2872.8030000000053,1.390,-0.695,-0.133
2875.3060000000055,1.527,-1.017,0.029
2877.8080000000054,1.797,0.649,-0.335
2880.3100000000054,0.670,-0.094,0.524
2882.8130000000056,0.553,0.316,0.215
2885.3150000000055,0.959,0.321,-0.022
2887.8180000000057,0.998,-0.247,0.070
2890.3200000000056,1.305,-0.016,-0.149
2892.823000000006,1.305,-0.016,-0.149
2895.3250000000057,1.438,-0.243,0.172
2897.828000000006,1.086,-0.241,0.046
2900.330000000006,0.906,0.843,0.515
2902.832000000006,1.016,0.523,0.009
2905.335000000006,0.784,-0.438,0.162
2907.837000000006,0.972,0.402,0.288
2910.340000000006,1.055,-0.325,-0.380
2912.842000000006,1.032,-0.979,-0.075
2915.345000000006,1.124,-0.435,0.199
2917.847000000006,1.304,0.031,0.105
2920.3500000000063,0.812,0.112,0.367
2922.8520000000062,0.816,1.154,0.318
2925.354000000006,0.391,0.063,0.062
2927.8570000000063,0.678,0.015,0.121
2930.3590000000063,1.601,0.242,-0.309
2932.8620000000064,1.469,-0.632,-0.114
2935.3640000000064,1.538,-0.992,0.076
2937.8670000000066,1.538,-0.992,0.076
2940.3690000000065,1.706,0.757,-0.226
2942.8720000000067,0.727,-0.071,0.353
2945.3740000000066,0.590,0.215,0.210
2947.8760000000066,1.006,0.386,0.046
2950.3790000000067,1.011,-0.391,-0.039
2952.8810000000067,1.181,-0.218,-0.002
2955.384000000007,1.347,-0.203,0.168
2957.886000000007,0.937,-0.047,0.202
2960.389000000007,0.793,0.592,0.406
2962.891000000007,1.038,0.756,0.156
2965.394000000007,0.762,-0.408,0.100
2967.896000000007,0.847,0.347,0.313
2970.398000000007,1.140,-0.166,-0.345
2972.901000000007,1.167,-1.070,-0.218
2975.403000000007,1.246,-0.626,0.168
2977.906000000007,1.246,-0.626,0.168
2980.408000000007,1.602,0.074,-0.177
2982.9110000000073,0.820,0.124,0.506
2985.4130000000073,0.648,0.992,0.312
2987.9150000000072,0.362,0.280,0.053
2990.4180000000074,0.733,-0.192,0.147
2992.9200000000073,1.568,0.190,-0.314
2995.4230000000075,1.482,-0.473,-0.016
2997.9250000000075,1.509,-0.774,0.031
3000.4280000000076,1.534,0.890,0.030
3002.9300000000076,0.732,-0.133,0.215
3005.4330000000077,0.660,0.038,0.206
3007.9350000000077,1.084,0.342,0.163
3010.4370000000076,1.085,-0.354,-0.257
3012.940000000008,1.136,-0.454,0.071
3015.4420000000077,1.262,-0.202,0.172
3017.945000000008,1.262,-0.202,0.172
3020.447000000008,0.904,-0.007,0.222
3022.950000000008,0.762,0.472,0.259
3025.452000000008,1.035,1.004,0.358
3027.955000000008,0.644,-0.382,0.137
3030.457000000008,0.806,0.271,0.242
3032.959000000008,1.154,-0.146,-0.281
3035.462000000008,1.188,-0.999,-0.181
3037.964000000008,1.262,-0.619,0.172
3040.4670000000083,1.662,0.062,-0.226
3042.9690000000082,0.767,0.027,0.539
3045.4720000000084,0.672,0.938,0.222
3047.9740000000083,0.398,0.351,-0.009
3050.4770000000085,0.765,-0.162,0.206
3052.9790000000085,1.547,0.159,-0.336
3055.4810000000084,1.512,-0.431,0.007
3057.9840000000086,1.490,-0.731,-0.013
3060.4860000000085,1.482,0.949,0.142
3062.9890000000087,1.482,0.949,0.142
3065.4910000000086,0.746,-0.106,0.137
3067.994000000009,0.663,0.055,0.180
3070.4960000000087,1.097,0.297,0.159
3072.9980000000087,1.073,-0.406,-0.236
3075.501000000009,1.148,-0.438,0.062
3078.003000000009,1.201,-0.141,0.194
3080.506000000009,0.930,0.007,0.218
3083.008000000009,0.753,0.297,0.273
3085.511000000009,1.001,1.109,0.376
3088.013000000009,0.618,-0.243,0.155
3090.516000000009,0.709,0.222,0.074
3093.018000000009,1.246,-0.116,-0.299
3095.520000000009,1.199,-0.994,-0.266
3098.0230000000092,1.319,-0.704,0.107
3100.525000000009,1.762,0.157,-0.360
3103.0280000000093,0.750,0.017,0.537
3105.5300000000093,0.750,0.017,0.537
3108.0330000000095,0.570,0.844,0.235
3110.5350000000094,0.565,0.359,-0.070
3113.0380000000096,0.818,-0.231,0.212
3115.5400000000095,1.527,0.171,-0.337
3118.0420000000095,1.543,-0.348,0.056
3120.5450000000096,1.396,-0.664,0.029
3123.0470000000096,1.332,0.936,0.264
3125.5500000000097,0.834,-0.016,0.076
3128.0520000000097,0.729,-0.008,0.337
3130.55500000001,1.101,0.315,0.172
3133.05700000001,1.086,-0.491,-0.383
3135.56000000001,1.071,-0.533,0.053
3138.06200000001,1.159,-0.156,0.245
3140.56400000001,0.930,-0.044,0.140
3143.06700000001,0.771,0.292,0.211
3145.56900000001,1.019,1.164,0.405
3148.07200000001,1.019,1.164,0.405
3150.57400000001,0.547,-0.312,0.142
3153.0770000000102,0.668,0.211,0.155
3155.57900000001,1.265,-0.067,-0.271
3158.08100000001,1.276,-0.914,-0.220
3160.5840000000103,1.398,-0.774,0.113
3163.0860000000102,1.844,0.148,-0.372
3165.5890000000104,0.765,0.015,0.565
3168.0910000000104,0.597,1.055,0.267
3170.5940000000105,0.438,0.219,-0.071
3173.0960000000105,0.764,-0.233,0.188
3175.5990000000106,1.573,0.242,-0.296
3178.1010000000106,1.517,-0.423,-0.023
3180.6030000000105,1.512,-0.804,0.062
3183.1060000000107,1.547,0.779,-0.049
3185.6080000000106,0.742,-0.082,0.280
3188.111000000011,0.668,0.257,0.176
3190.6130000000107,1.050,0.331,0.112
3193.116000000011,1.023,-0.452,-0.212
3195.618000000011,1.023,-0.452,-0.212
3198.121000000011,1.128,-0.294,0.063
3200.623000000011,1.237,-0.223,0.180
3203.125000000011,0.913,-0.132,0.142
3205.628000000011,0.779,0.391,0.288
3208.130000000011,0.987,1.160,0.398
3210.633000000011,0.582,-0.372,0.188
3213.135000000011,0.754,0.201,0.131
3215.6380000000113,1.273,-0.101,-0.335
3218.1400000000112,1.222,-0.899,-0.205
3220.643000000011,1.306,-0.664,0.050
3223.145000000011,1.811,0.116,-0.306
3225.647000000011,0.751,0.043,0.482
3228.150000000011,0.562,0.899,0.305
3230.652000000011,0.562,0.228,-0.091
3233.155000000011,0.848,-0.254,0.290
3235.657000000011,0.848,-0.254,0.290
3238.160000000011,1.617,0.235,-0.281
3240.662000000011,1.547,-0.383,-0.020
3243.1650000000113,1.384,-0.711,0.086
3245.6670000000113,1.340,0.905,0.140
3248.1690000000112,0.808,0.092,0.112
3250.6720000000114,0.690,0.015,0.233
3253.1740000000113,1.081,0.234,0.179
3255.6770000000115,1.035,-0.502,-0.310
3258.1790000000115,1.037,-0.399,0.062
3260.6820000000116,1.164,-0.202,0.204
3263.1840000000116,0.936,-0.140,0.094
3265.6860000000115,0.795,0.365,0.188
3268.1890000000117,1.065,1.188,0.394
3270.6910000000116,0.600,-0.273,0.137
3273.194000000012,0.729,0.157,0.101
3275.6960000000117,1.331,-0.018,-0.301
3278.199000000012,1.331,-0.018,-0.301
3280.701000000012,1.237,-0.906,-0.173
3283.204000000012,1.370,-0.801,0.084
3285.706000000012,1.859,0.187,-0.260
3288.208000000012,0.720,0.179,0.578
3290.711000000012,0.593,0.878,0.298
3293.213000000012,0.545,0.155,-0.122
3295.716000000012,0.840,-0.203,0.265
3298.218000000012,1.577,0.284,-0.314
3300.7210000000123,1.568,-0.410,-0.025
3303.2230000000122,1.399,-0.758,0.038
3305.7260000000124,1.357,0.928,0.198
3308.2280000000123,0.793,0.085,0.137
3310.7300000000123,0.680,0.016,0.271
3313.2330000000125,1.093,0.230,0.142
3315.7350000000124,1.006,-0.461,-0.321
3318.2380000000126,1.081,-0.423,0.086
3320.7400000000125,1.081,-0.423,0.086
3323.2430000000127,1.195,-0.218,0.201
3325.7450000000126,0.967,-0.093,0.145
3328.248000000013,0.765,0.387,0.172
3330.7500000000127,1.020,1.175,0.366
3333.2520000000127,0.578,-0.343,0.155
3335.755000000013,0.725,0.201,0.090
3338.257000000013,1.309,0.030,-0.291
3340.760000000013,1.227,-0.962,-0.220
3343.262000000013,1.395,-0.876,0.081
3345.765000000013,1.882,0.203,-0.351
3348.267000000013,0.706,0.137,0.632
3350.769000000013,0.569,0.855,0.264
3353.272000000013,0.550,0.190,-0.160
3355.774000000013,0.898,-0.194,0.257
3358.2770000000132,1.561,0.269,-0.306
3360.779000000013,1.516,-0.376,-0.010
3363.2820000000133,1.347,-0.699,0.012
3365.7840000000133,1.347,-0.699,0.012
3368.2870000000134,1.321,1.012,0.327
3370.7890000000134,0.832,0.050,0.112
3373.2910000000134,0.701,-0.134,0.279
3375.7940000000135,1.065,0.269,0.184
3378.2960000000135,1.023,-0.414,-0.356
3380.7990000000136,1.079,-0.516,0.097
3383.3010000000136,1.199,-0.231,0.195
3385.8040000000137,0.956,-0.046,0.181
3388.3060000000137,0.734,0.398,0.199
3390.809000000014,1.019,1.232,0.404
3393.311000000014,0.601,-0.368,0.063
3395.8130000000137,0.714,0.173,0.154
3398.3160000000134,1.277,-0.008,-0.281
3400.8180000000134,1.223,-0.931,-0.226
3403.3210000000136,1.394,-0.833,0.092
3405.8230000000135,1.866,0.272,-0.325
3408.3260000000137,1.866,0.272,-0.325
3410.8280000000136,0.717,0.082,0.699
3413.331000000014,0.554,0.818,0.219
3415.8330000000137,0.612,0.264,-0.135
3418.3350000000137,0.897,-0.195,0.284
3420.838000000014,1.547,0.180,-0.312
3423.340000000014,1.539,-0.422,-0.047
3425.843000000014,1.327,-0.618,0.073
3428.345000000014,1.253,1.073,0.351
3430.848000000014,0.858,0.132,0.034
3433.350000000014,0.748,-0.187,0.180
3435.852000000014,1.104,0.355,0.257
3438.355000000014,1.008,-0.419,-0.348
3440.857000000014,1.022,-0.578,0.098
3443.360000000014,1.129,-0.293,0.172
3445.862000000014,0.999,-0.075,0.202
3448.3650000000143,0.759,0.318,0.234
3450.8670000000143,0.759,0.318,0.234
3453.3700000000144,0.995,1.272,0.355
3455.8720000000144,0.569,-0.312,0.077
3458.3740000000143,0.693,0.202,0.103
3460.8770000000145,1.315,0.030,-0.297
3463.3790000000145,1.258,-0.911,-0.271
3465.8820000000146,1.425,-0.845,0.093
3468.3840000000146,1.871,0.382,-0.367
3470.8870000000147,0.730,-0.010,0.621
3473.3890000000147,0.550,0.697,0.296
3475.892000000015,0.654,0.272,-0.137
3478.394000000015,0.850,-0.216,0.273
3480.8960000000147,1.495,0.199,-0.302
3483.399000000015,1.539,-0.377,-0.004
3485.901000000015,1.308,-0.570,0.023
3488.404000000015,1.246,1.048,0.332
3490.906000000015,0.857,0.124,0.039
3493.409000000015,0.764,-0.205,0.112
3495.911000000015,0.764,-0.205,0.112
3498.414000000015,1.107,0.375,0.211
3500.916000000015,1.034,-0.486,-0.406
3503.418000000015,0.999,-0.595,0.090
3505.9210000000153,1.141,-0.247,0.156
3508.4230000000152,1.032,0.040,0.194
3510.9260000000154,0.765,0.265,0.226
3513.4280000000153,1.001,1.240,0.347
3515.9310000000155,0.532,-0.289,0.071
3518.4330000000155,0.680,0.223,0.131
3520.9360000000156,1.321,0.037,-0.354
3523.4380000000156,1.279,-0.993,-0.243
3525.9400000000155,1.470,-0.824,0.077
3528.4430000000157,1.905,0.305,-0.426
3530.9450000000156,0.730,0.039,0.688
3533.448000000016,0.507,0.709,0.240
3535.9500000000157,0.602,0.350,-0.110
3538.453000000016,0.602,0.350,-0.110
3540.955000000016,0.905,-0.274,0.219
3543.457000000016,1.492,0.173,-0.274
3545.960000000016,1.524,-0.346,0.062
3548.462000000016,1.261,-0.483,0.047
3550.9650000000156,1.187,0.983,0.475
3553.4670000000156,0.909,0.151,-0.016
3555.9700000000157,0.823,-0.258,0.105
3558.4720000000157,1.085,0.382,0.280
3560.975000000016,1.020,-0.424,-0.399
3563.477000000016,1.016,-0.747,0.086
3565.9790000000157,1.124,-0.243,0.188
3568.482000000016,1.032,0.001,0.217
3570.984000000016,0.743,0.272,0.132
3573.487000000016,0.943,1.246,0.507
3575.989000000016,0.476,-0.259,0.124
3578.492000000016,0.663,0.136,0.105
3580.994000000016,0.663,0.136,0.105
3583.497000000016,1.367,0.037,-0.297
3585.999000000016,1.290,-0.898,-0.200
3588.501000000016,1.434,-0.806,0.118
3591.0040000000163,1.929,0.406,-0.399
3593.5060000000162,0.746,-0.059,0.499
3596.0090000000164,0.485,0.654,0.273
3598.5110000000163,0.642,0.334,-0.048
3601.0140000000165,0.928,-0.257,0.238
3603.5160000000164,1.530,0.070,-0.294
3606.0190000000166,1.543,-0.330,0.086
3608.5210000000166,1.212,-0.477,0.069
3611.0230000000165,1.103,0.996,0.414
3613.526000000016,0.913,0.147,0.071
3616.028000000016,0.795,-0.233,0.232
3618.5310000000163,1.063,0.320,0.292
3621.0330000000167,0.984,-0.438,-0.419
3623.5360000000164,0.984,-0.438,-0.419
3626.0380000000164,1.027,-0.720,0.063
3628.5400000000163,1.118,-0.191,0.202
3631.0430000000165,1.074,0.007,0.141
3633.5450000000164,0.782,0.132,0.112
3636.048000000016,0.965,1.188,0.438
3638.550000000016,0.470,-0.185,0.124
3641.0530000000163,0.694,0.124,0.084
3643.555000000016,1.394,-0.008,-0.319
3646.0580000000164,1.311,-0.832,-0.160
3648.5600000000163,1.438,-0.766,0.090
3651.0620000000163,1.863,0.390,-0.361
3653.565000000016,0.687,-0.025,0.577
3656.067000000016,0.537,0.628,0.249
3658.570000000016,0.758,0.284,-0.087
3661.0720000000165,0.938,-0.274,0.234
3663.575000000016,1.503,0.077,-0.289
3666.077000000016,1.503,0.077,-0.289
3668.5800000000163,1.527,-0.243,0.090
3671.0820000000163,1.191,-0.470,0.059
3673.584000000016,1.062,0.909,0.413
3676.087000000016,0.920,0.242,0.068
3678.589000000016,0.784,-0.196,0.190
3681.092000000016,1.055,0.350,0.304
3683.594000000016,0.992,-0.527,-0.430
3686.097000000016,1.007,-0.734,0.081
3688.5990000000165,1.121,-0.177,0.172
3691.1020000000162,1.077,-0.008,0.163
3693.604000000016,0.779,0.133,0.155
3696.106000000016,0.960,1.241,0.405
3698.6090000000163,0.476,-0.146,0.156
3701.1110000000162,0.659,0.079,0.077
3703.614000000016,1.417,0.053,-0.321
3706.116000000016,1.353,-0.772,-0.191
3708.619000000016,1.499,-0.876,0.117
3711.121000000016,1.499,-0.876,0.117
3713.623000000016,1.882,0.395,-0.384
3716.1260000000157,0.684,-0.055,0.592
3718.628000000016,0.495,0.647,0.235
3721.131000000016,0.740,0.311,-0.056
3723.6330000000157,0.930,-0.329,0.199
3726.136000000016,1.462,0.101,-0.251
3728.6380000000163,1.507,-0.180,0.121
3731.141000000016,1.165,-0.445,0.043
3733.643000000016,1.078,0.923,0.410
3736.145000000016,0.949,0.188,0.078
3738.648000000016,0.780,-0.195,0.207
3741.150000000016,1.015,0.321,0.284
3743.6530000000157,1.016,-0.501,-0.438
3746.1550000000157,1.012,-0.716,0.068
3748.658000000016,1.115,-0.271,0.149
3751.1600000000158,1.131,0.007,0.137
3753.663000000016,1.131,0.007,0.137
3756.165000000016,0.780,0.112,0.280
3758.667000000016,0.973,1.319,0.315
3761.1700000000155,0.482,-0.181,0.107
3763.6720000000155,0.656,0.015,0.012
3766.1750000000156,1.469,0.095,-0.271
3768.677000000016,1.358,-0.653,-0.218
3771.1800000000158,1.516,-0.868,0.093
3773.6820000000157,1.896,0.378,-0.406
3776.185000000016,0.704,-0.051,0.480
3778.6870000000163,0.517,0.612,0.272
3781.189000000016,0.800,0.300,-0.031
3783.6920000000164,0.977,-0.320,0.165
3786.1940000000163,1.405,0.094,-0.191
3788.6970000000165,1.480,-0.213,0.123
3791.1990000000164,1.141,-0.396,0.065
3793.7020000000166,0.993,0.883,0.465
3796.2040000000165,0.993,0.883,0.465
3798.7060000000165,0.962,0.342,0.023
3801.209000000016,0.779,-0.368,0.270
3803.711000000016,0.975,0.242,0.340
3806.2140000000163,1.050,-0.419,-0.395
3808.7160000000167,1.043,-0.736,0.020
3811.2190000000164,1.090,-0.309,0.139
3813.7210000000164,1.222,-0.087,0.112
3816.2240000000165,0.815,0.117,0.195
3818.7260000000165,0.882,1.295,0.469
3821.2280000000164,0.404,-0.122,0.062
3823.731000000016,0.672,-0.051,0.043
3826.233000000016,1.498,0.184,-0.288
3828.7360000000162,1.398,-0.658,-0.166
3831.238000000016,1.521,-0.903,0.024
3833.7410000000164,1.855,0.445,-0.364
3836.2430000000163,0.694,0.007,0.440
3838.7460000000165,0.694,0.007,0.440
3841.2480000000164,0.556,0.472,0.253
3843.7500000000164,0.887,0.264,-0.044
3846.2530000000165,0.982,-0.298,0.115
3848.7550000000165,1.351,0.069,-0.196
3851.258000000016,1.449,-0.208,0.176
3853.760000000016,1.109,-0.376,0.081
3856.2630000000163,0.972,0.870,0.492
3858.7650000000162,0.969,0.438,0.124
3861.2680000000164,0.769,-0.345,0.296
3863.7700000000164,0.970,0.245,0.334
3866.2720000000163,1.061,-0.411,-0.429
3868.7750000000165,1.062,-0.785,-0.039
3871.2770000000164,1.097,-0.383,0.124
3873.780000000016,1.264,-0.056,0.090
3876.2820000000165,0.839,0.154,0.378
3878.785000000016,0.896,1.253,0.383
3881.287000000016,0.896,1.253,0.383
3883.7900000000163,0.376,-0.185,0.034
3886.2920000000167,0.649,-0.020,0.117
3888.7940000000167,1.517,0.269,-0.285
3891.297000000017,1.440,-0.633,-0.174
3893.799000000017,1.529,-0.970,0.046
3896.302000000017,1.812,0.545,-0.285
3898.804000000017,0.656,-0.032,0.473
3901.307000000017,0.515,0.422,0.279
3903.809000000017,0.938,0.274,-0.018
3906.311000000017,1.007,-0.320,0.055
3908.8140000000167,1.284,0.026,-0.134
3911.3160000000166,1.409,-0.171,0.180
3913.819000000017,1.070,-0.289,0.090
3916.321000000017,0.909,0.815,0.410
3918.824000000017,1.053,0.532,0.090
3921.326000000017,0.777,-0.427,0.175
3923.829000000017,0.777,-0.427,0.175
3926.3310000000174,0.940,0.304,0.327
3928.8330000000174,1.074,-0.255,-0.399
3931.3360000000175,1.040,-0.903,-0.044
3933.8380000000175,1.117,-0.528,0.094
3936.3410000000176,1.351,-0.036,0.062
3938.8430000000176,0.824,0.180,0.465
3941.3460000000177,0.796,1.234,0.374
3943.8480000000177,0.376,-0.086,0.055
3946.351000000018,0.640,-0.051,0.137
3948.853000000018,1.543,0.297,-0.307
3951.3550000000178,1.461,-0.530,-0.096
3953.8580000000175,1.524,-0.994,0.065
3956.360000000018,1.748,0.640,-0.252
3958.8630000000176,0.717,-0.024,0.367
3961.3650000000175,0.545,0.253,0.202
3963.8680000000177,0.972,0.269,0.024
3966.370000000018,1.023,-0.275,0.042
3968.873000000018,1.023,-0.275,0.042
3971.3750000000177,1.261,-0.088,-0.043
3973.8770000000177,1.351,-0.220,0.181
3976.380000000018,1.023,-0.197,0.140
3978.882000000018,0.824,0.757,0.440
3981.3850000000175,1.012,0.695,0.190
3983.8870000000175,0.727,-0.481,0.266
3986.3900000000176,0.892,0.303,0.297
3988.8920000000176,1.086,-0.255,-0.377
3991.3940000000175,1.074,-0.921,-0.098
3993.897000000017,1.179,-0.562,0.181
3996.3990000000176,1.456,0.019,-0.039
3998.9020000000173,0.831,0.155,0.351
4001.4040000000173,0.734,1.068,0.368
4003.9070000000174,0.344,0.055,0.087
4006.4090000000174,0.719,-0.077,0.141
4008.9120000000175,0.719,-0.077,0.141
4011.4140000000175,1.608,0.234,-0.294
4013.9160000000174,1.503,-0.547,-0.129
4016.4190000000176,1.504,-0.977,0.037
4018.9210000000176,1.715,0.826,-0.098
4021.4240000000173,0.686,-0.052,0.387
4023.9260000000177,0.608,0.172,0.188
4026.4290000000174,1.019,0.297,0.023
4028.9310000000173,0.999,-0.302,-0.024
4031.4340000000175,1.215,-0.143,-0.039
4033.936000000018,1.350,-0.236,0.181
4036.438000000018,0.992,-0.135,0.159
4038.941000000018,0.777,0.617,0.387
4041.443000000018,1.008,0.805,0.234
4043.946000000018,0.757,-0.453,0.218
4046.448000000018,0.909,0.358,0.288
4048.951000000018,1.085,-0.254,-0.383
4051.453000000018,1.055,-1.007,-0.110
4053.9560000000183,1.055,-1.007,-0.110
4056.4580000000183,1.175,-0.556,0.110
4058.960000000018,1.545,0.084,-0.031
4061.463000000018,0.844,0.128,0.477
4063.9650000000183,0.742,0.991,0.256
4066.468000000018,0.394,0.085,0.023
4068.970000000018,0.727,-0.020,0.159
4071.473000000018,1.646,0.267,-0.272
4073.9750000000186,1.527,-0.583,-0.134
4076.4770000000185,1.515,-0.887,0.054
4078.9800000000187,1.621,0.855,-0.080
4081.4820000000186,0.702,-0.033,0.287
4083.9850000000188,0.632,0.144,0.165
4086.4870000000187,1.015,0.312,0.074
4088.990000000019,1.022,-0.385,-0.062
4091.492000000019,1.159,-0.234,-0.015
4093.995000000019,1.321,-0.191,0.234
4096.497000000019,1.321,-0.191,0.234
4098.99900000002,0.967,-0.095,0.132
4101.5020000000195,0.780,0.618,0.414
4104.00400000002,1.020,0.788,0.164
4106.50700000002,0.769,-0.360,0.172
4109.00900000002,0.835,0.383,0.287
4111.51200000002,1.109,-0.203,-0.399
4114.01400000002,1.117,-1.066,-0.121
4116.51700000002,1.234,-0.606,0.109
4119.01900000002,1.609,0.097,-0.078
4121.521000000021,0.824,0.148,0.459
4124.024000000021,0.652,0.938,0.300
4126.526000000022,0.357,0.172,0.050
4129.029000000021,0.784,-0.093,0.188
4131.531000000021,1.659,0.212,-0.312
4134.0340000000215,1.519,-0.554,-0.048
4136.536000000022,1.491,-0.816,0.081
4139.039000000022,1.491,-0.816,0.081
4141.541000000021,1.590,0.884,-0.035
4144.0430000000215,0.750,-0.108,0.254
4146.546000000021,0.657,0.112,0.180
4149.048000000021,1.054,0.373,0.112
4151.551000000021,1.019,-0.406,-0.132
4154.053000000022,1.134,-0.328,0.026
4156.556000000021,1.297,-0.200,0.223
4159.058000000021,0.943,-0.091,0.180
4161.560000000021,0.734,0.479,0.305
4164.063000000022,1.008,0.906,0.366
4166.565000000022,0.690,-0.410,0.256
4169.068000000022,0.836,0.344,0.180
4171.5700000000215,1.103,-0.192,-0.335
4174.073000000022,1.121,-1.024,-0.137
4176.575000000023,1.249,-0.583,0.162
4179.078000000022,1.726,0.120,-0.181
4181.580000000023,1.726,0.120,-0.181
4184.082000000022,0.788,0.000,0.514
4186.585000000022,0.675,0.928,0.253
4189.087000000021,0.405,0.295,-0.016
4191.590000000022,0.815,-0.153,0.202
4194.092000000022,1.663,0.176,-0.344
4196.595000000022,1.547,-0.471,-0.062
4199.097000000022,1.406,-0.778,0.076
4201.600000000022,1.438,0.993,0.101
4204.102000000023,0.801,-0.039,0.147
4206.604000000023,0.717,0.059,0.149
4209.107000000023,1.069,0.289,0.152
4211.609000000023,0.969,-0.403,-0.229
4214.112000000023,1.077,-0.391,0.081
4216.614000000023,1.217,-0.140,0.222
4219.117000000023,0.984,-0.080,0.152
4221.619000000023,0.728,0.273,0.288
4224.122000000023,0.728,0.273,0.288
4226.624000000023,1.001,1.117,0.315
4229.126000000024,0.648,-0.223,0.194
4231.6290000000245,0.765,0.240,0.117
4234.131000000025,1.209,-0.156,-0.352
4236.634000000025,1.159,-0.985,-0.195
4239.136000000024,1.315,-0.656,0.117
4241.639000000025,1.815,0.187,-0.297
4244.141000000025,0.836,-0.016,0.512
4246.644000000025,0.593,0.850,0.253
4249.146000000024,0.477,0.264,-0.024
4251.648000000025,0.828,-0.169,0.233
4254.151000000024,1.644,0.218,-0.341
4256.653000000024,1.577,-0.419,0.030
4259.156000000024,1.382,-0.703,0.063
4261.658000000024,1.359,0.951,0.279
4264.161000000024,0.789,-0.004,0.056
4266.663000000024,0.789,-0.004,0.056
4269.1650000000245,0.709,0.077,0.233
4271.668000000025,1.074,0.276,0.194
4274.1700000000255,0.977,-0.513,-0.356
4276.673000000025,1.056,-0.470,0.115
4279.175000000025,1.172,-0.133,0.253
4281.678000000025,0.954,-0.056,0.159
4284.180000000026,0.738,0.249,0.188
4286.6830000000255,1.047,1.164,0.464
4289.185000000025,0.601,-0.270,0.184
4291.687000000025,0.720,0.242,0.086
4294.190000000025,1.254,-0.062,-0.354
4296.692000000025,1.230,-0.981,-0.191
4299.195000000024,1.373,-0.789,0.086
4301.697000000025,1.855,0.218,-0.340
4304.200000000024,0.753,-0.004,0.586
4306.702000000025,0.574,0.855,0.284
4309.205000000025,0.574,0.855,0.284
4311.707000000026,0.568,0.303,-0.095
4314.209000000026,0.847,-0.291,0.240
4316.712000000026,1.559,0.211,-0.325
4319.214000000025,1.555,-0.281,0.040
4321.717000000026,1.321,-0.647,0.016
4324.219000000026,1.277,0.934,0.353
4326.722000000026,0.812,0.065,0.056
4329.2240000000265,0.773,-0.080,0.335
4331.727000000026,1.094,0.328,0.178
4334.229000000027,1.020,-0.465,-0.400
4336.731000000027,1.055,-0.507,0.086
4339.234000000028,1.154,-0.182,0.188
4341.736000000028,0.969,-0.056,0.186
4344.239000000028,0.726,0.232,0.209
4346.741000000027,0.952,1.315,0.319
4349.244000000028,0.577,-0.238,0.092
4351.746000000028,0.577,-0.238,0.092
4354.248000000029,0.730,0.105,0.077
4356.751000000028,1.352,-0.007,-0.337
4359.253000000029,1.265,-0.853,-0.242
4361.7560000000285,1.418,-0.835,0.086
4364.258000000029,1.890,0.187,-0.406
4366.761000000029,0.780,0.014,0.670
4369.263000000029,0.539,0.827,0.246
4371.766000000029,0.546,0.313,-0.143
4374.268000000029,0.887,-0.243,0.228
4376.7700000000295,1.574,0.181,-0.363
4379.27300000003,1.553,-0.355,0.061
4381.775000000031,1.297,-0.621,-0.002
4384.27800000003,1.242,0.918,0.359
4386.78000000003,0.836,0.180,0.059
4389.28300000003,0.800,-0.103,0.246
4391.785000000031,1.107,0.269,0.188
4394.2880000000305,1.107,0.269,0.188
4396.79000000003,0.993,-0.438,-0.399
4399.29200000003,1.003,-0.533,0.124
4401.79500000003,1.152,-0.212,0.195
4404.29700000003,1.004,-0.111,0.211
4406.800000000029,0.743,0.220,0.180
4409.30200000003,0.964,1.382,0.440
4411.805000000029,0.559,-0.173,0.063
4414.30700000003,0.715,0.097,0.071
4416.8100000000295,1.373,0.029,-0.306
4419.31200000003,1.279,-0.853,-0.231
4421.814000000029,1.422,-0.910,0.102
4424.317000000029,1.898,0.324,-0.471
4426.819000000029,0.753,0.069,0.571
4429.322000000029,0.499,0.656,0.257
4431.82400000003,0.640,0.290,-0.048
4434.327000000029,0.913,-0.274,0.222
4436.829000000029,1.496,0.181,-0.274
4439.331000000029,1.496,0.181,-0.274
4441.834000000029,1.514,-0.325,0.079
4444.336000000028,1.234,-0.610,0.003
4446.839000000028,1.155,0.944,0.535
4449.3410000000285,0.890,0.336,0.062
4451.844000000028,0.788,-0.180,0.215
4454.346000000029,1.081,0.246,0.240
4456.849000000029,1.007,-0.419,-0.423
4459.35100000003,1.015,-0.672,0.055
4461.85300000003,1.115,-0.244,0.194
4464.35600000003,1.038,-0.070,0.159
4466.858000000029,0.765,0.271,0.105
4469.36100000003,0.930,1.246,0.472
4471.86300000003,0.446,-0.157,0.163
4474.36600000003,0.648,0.068,0.059
4476.8680000000295,1.420,0.118,-0.306
4479.37100000003,1.420,0.118,-0.306
4481.8730000000305,1.327,-0.832,-0.221
4484.375000000031,1.521,-1.031,0.071
4486.8780000000315,1.922,0.342,-0.419
4489.380000000032,0.719,0.077,0.631
4491.883000000032,0.550,0.624,0.227
4494.385000000031,0.734,0.258,-0.077
4496.888000000032,0.953,-0.274,0.222
4499.390000000032,1.445,0.139,-0.294
4501.893000000032,1.478,-0.272,0.070
4504.395000000031,1.180,-0.477,0.006
4506.897000000032,1.077,0.975,0.543
4509.400000000032,0.944,0.318,0.063
4511.902000000033,0.803,-0.316,0.257
4514.4050000000325,1.047,0.282,0.288
4516.907000000033,1.015,-0.359,-0.415
4519.410000000033,1.015,-0.788,0.045
4521.912000000033,1.124,-0.351,0.201
4524.415000000033,1.124,-0.351,0.201
4526.917000000033,1.112,-0.044,0.179
4529.419000000033,0.773,0.264,0.311
4531.922000000032,0.914,1.344,0.382
4534.424000000032,0.449,-0.189,0.103
4536.927000000032,0.662,0.014,0.019
4539.429000000033,1.452,0.175,-0.293
4541.9320000000325,1.357,-0.766,-0.235
4544.434000000032,1.515,-0.997,0.047
4546.936000000032,1.922,0.487,-0.400
4549.439000000032,0.722,-0.002,0.485
4551.941000000032,0.517,0.561,0.277
4554.444000000031,0.840,0.279,-0.108
4556.946000000032,0.984,-0.259,0.202
4559.449000000031,1.425,0.069,-0.207
4561.951000000032,1.485,-0.336,0.090
4564.454000000032,1.118,-0.445,0.077
4566.956000000032,1.118,-0.445,0.077
4569.4580000000315,1.016,1.007,0.569
4571.961000000031,0.970,0.406,-0.035
4574.463000000031,0.829,-0.310,0.140
4576.966000000031,1.040,0.297,0.262
4579.468000000032,1.003,-0.418,-0.423
4581.971000000031,0.969,-0.783,0.012
4584.473000000031,1.149,-0.358,0.144
4586.9760000000315,1.194,-0.009,0.147
4589.478000000032,0.773,0.196,0.214
4591.980000000032,0.870,1.279,0.453
4594.483000000032,0.405,-0.169,0.172
4596.985000000032,0.690,0.062,0.034
4599.488000000032,1.500,0.124,-0.301
4601.9900000000325,1.378,-0.830,-0.185
4604.493000000032,1.509,-0.966,0.121
4606.995000000033,1.873,0.617,-0.360
4609.498000000032,1.873,0.617,-0.360
4612.000000000033,0.718,-0.022,0.504
4614.502000000033,0.539,0.434,0.248
4617.005000000034,0.862,0.258,-0.020
4619.507000000034,0.956,-0.267,0.152
4622.010000000035,1.359,0.021,-0.235
4624.512000000035,1.444,-0.354,0.115
4627.015000000035,1.101,-0.328,0.084
4629.517000000034,0.980,0.921,0.523
4632.019000000035,0.975,0.493,0.054
4634.5220000000345,0.831,-0.384,0.202
4637.024000000034,1.024,0.351,0.351
4639.527000000035,1.043,-0.388,-0.434
4642.029000000035,0.996,-0.938,-0.016
4644.532000000036,1.109,-0.383,0.172
4647.034000000036,1.234,0.062,0.148
4649.537000000037,0.842,0.132,0.279
4652.039000000037,0.842,0.132,0.279
4654.5410000000375,0.883,1.206,0.378
4657.044000000037,0.352,-0.067,0.136
4659.546000000037,0.632,0.034,0.050
4662.049000000037,1.521,0.206,-0.294
4664.551000000038,1.438,-0.749,-0.156
4667.054000000038,1.555,-0.957,0.056
4669.556000000039,1.855,0.626,-0.333
4672.059000000039,0.670,-0.039,0.496
4674.56100000004,0.519,0.352,0.215
4677.06300000004,0.914,0.336,-0.007
4679.566000000041,1.029,-0.306,0.129
4682.068000000041,1.328,-0.102,-0.203
4684.571000000041,1.405,-0.200,0.173
4687.07300000004,1.077,-0.185,0.128
4689.576000000041,0.940,0.859,0.480
4692.078000000041,0.992,0.473,0.086
4694.581000000042,0.797,-0.453,0.222
4697.083000000042,0.797,-0.453,0.222
4699.585000000043,0.990,0.387,0.352
4702.088000000043,1.029,-0.445,-0.435
4704.590000000044,1.034,-0.939,-0.031
4707.0930000000435,1.155,-0.376,0.217
4709.595000000044,1.256,0.061,0.103
4712.098000000044,0.805,0.173,0.288
4714.600000000044,0.851,1.203,0.319
4717.102000000044,0.371,-0.046,0.105
4719.605000000045,0.623,-0.032,0.085
4722.107000000045,1.519,0.168,-0.282
4724.610000000046,1.457,-0.700,-0.129
4727.1120000000465,1.553,-0.860,0.108
4729.615000000047,1.835,0.632,-0.302
4732.1170000000475,0.668,-0.113,0.456
4734.620000000047,0.556,0.365,0.256
4737.122000000047,0.556,0.365,0.256
4739.624000000047,1.006,0.413,-0.051
4742.127000000047,1.043,-0.306,0.059
4744.629000000046,1.336,-0.134,-0.164
4747.132000000047,1.405,-0.224,0.155
4749.634000000047,1.008,-0.173,0.146
4752.137000000048,0.874,0.796,0.451
4754.639000000048,1.014,0.569,0.004
4757.142000000048,0.803,-0.383,0.140
4759.644000000048,0.965,0.336,0.368
4762.146000000048,1.047,-0.361,-0.423
4764.649000000048,1.063,-0.942,-0.032
4767.151000000047,1.148,-0.360,0.152
4769.654000000048,1.357,0.015,0.029
4772.156000000048,0.842,0.054,0.351
4774.659000000049,0.805,1.202,0.395
4777.161000000049,0.327,0.097,0.109
4779.66400000005,0.675,-0.116,0.093
4782.16600000005,0.675,-0.116,0.093
4784.668000000051,1.554,0.148,-0.310
4787.17100000005,1.454,-0.594,-0.103
4789.673000000051,1.532,-0.915,0.092
4792.17600000005,1.727,0.727,-0.243
4794.678000000051,0.680,-0.094,0.381
4797.181000000051,0.593,0.284,0.154
4799.683000000052,0.984,0.327,0.024
4802.186000000052,1.016,-0.369,0.038
4804.688000000053,1.303,-0.153,-0.102
4807.190000000053,1.405,-0.119,0.241
4809.693000000054,1.016,-0.194,0.094
4812.195000000054,0.844,0.702,0.487
4814.698000000054,0.957,0.632,0.132
4817.200000000054,0.758,-0.299,0.226
4819.703000000054,0.965,0.323,0.285
4822.2050000000545,1.084,-0.414,-0.374
4824.707000000055,1.084,-0.414,-0.374
4827.2100000000555,1.077,-0.935,-0.063
4829.712000000056,1.132,-0.328,0.168
4832.2150000000565,1.357,0.035,0.019
4834.717000000057,0.809,0.023,0.359
4837.220000000058,0.812,1.188,0.391
4839.722000000058,0.352,0.059,0.076
4842.225000000058,0.681,-0.106,0.074
4844.727000000057,1.603,0.175,-0.305
4847.229000000058,1.461,-0.564,-0.082
4849.732000000057,1.531,-0.923,0.055
4852.234000000057,1.757,0.702,-0.228
4854.737000000057,0.680,-0.072,0.391
4857.239000000058,0.568,0.327,0.112
4859.742000000058,0.984,0.308,0.069
4862.244000000059,1.038,-0.435,0.043
4864.7470000000585,1.261,-0.122,-0.078
4867.249000000059,1.261,-0.122,-0.078
4869.751000000058,1.404,-0.111,0.256
4872.254000000058,0.962,-0.119,0.105
4874.756000000058,0.818,0.617,0.399
4877.259000000058,1.019,0.727,0.226
4879.761000000059,0.756,-0.388,0.274
4882.264000000059,0.905,0.327,0.257
4884.76600000006,1.094,-0.360,-0.358
4887.26900000006,1.101,-0.938,-0.059
4889.771000000061,1.199,-0.473,0.164
4892.273000000061,1.470,0.009,-0.035
4894.776000000061,0.796,0.048,0.357
4897.278000000061,0.765,1.210,0.327
4899.781000000061,0.344,0.124,0.094
4902.283000000061,0.686,-0.223,0.097
4904.786000000062,1.607,0.265,-0.285
4907.288000000062,1.483,-0.419,-0.109
4909.790000000063,1.483,-0.419,-0.109
4912.293000000063,1.545,-0.903,0.029
4914.795000000064,1.681,0.719,-0.143
4917.298000000064,0.699,-0.110,0.422
4919.800000000065,0.587,0.269,0.180
4922.3030000000645,1.008,0.303,0.024
4924.805000000064,1.012,-0.435,-0.060
4927.308000000065,1.226,-0.091,-0.054
4929.810000000065,1.344,-0.125,0.257
4932.312000000065,0.959,-0.134,0.163
4934.815000000066,0.797,0.598,0.351
4937.317000000066,0.992,0.879,0.198
4939.820000000067,0.776,-0.388,0.178
4942.322000000067,0.883,0.212,0.199
4944.825000000068,1.118,-0.290,-0.345
4947.327000000068,1.074,-0.935,-0.105
4949.830000000068,1.217,-0.540,0.155
4952.332000000068,1.217,-0.540,0.155
4954.834000000068,1.559,-0.023,-0.096
4957.337000000069,0.837,0.076,0.540
4959.839000000069,0.712,1.136,0.287
4962.34200000007,0.305,0.220,0.023
4964.84400000007,0.706,-0.257,0.171
4967.347000000071,1.628,0.280,-0.320
4969.849000000071,1.498,-0.497,-0.028
4972.352000000071,1.496,-0.946,0.061
4974.854000000071,1.597,0.812,-0.098
4977.356000000071,0.742,-0.052,0.257
4979.85900000007,0.672,0.178,0.118
4982.36100000007,1.069,0.262,0.120
4984.8640000000705,0.987,-0.368,-0.160
4987.366000000071,1.154,-0.161,0.097
4989.8690000000715,1.306,-0.171,0.188
4992.371000000072,1.008,-0.135,0.156
4994.873000000072,0.812,0.480,0.367
4997.376000000073,0.812,0.480,0.367
4999.878000000073,0.960,0.948,0.300
5002.381000000073,0.696,-0.368,0.164
5004.8830000000735,0.845,0.199,0.218
5007.386000000073,1.128,-0.185,-0.321
5009.888000000074,1.144,-0.930,-0.176
5012.391000000074,1.226,-0.611,0.181
5014.893000000075,1.577,0.007,-0.156
5017.395000000075,0.843,0.112,0.555
5019.898000000076,0.719,1.003,0.303
5022.400000000076,0.312,0.142,0.034
5024.903000000077,0.722,-0.197,0.136
5027.405000000077,1.609,0.345,-0.301
5029.908000000077,1.530,-0.450,-0.048
5032.410000000076,1.515,-0.923,0.012
5034.913000000077,1.584,0.842,-0.038
5037.415000000077,0.709,-0.041,0.234
5039.917000000078,0.709,-0.041,0.234
5042.420000000078,0.663,0.178,0.172
5044.922000000079,1.089,0.222,0.097
5047.425000000079,1.050,-0.351,-0.153
5049.92700000008,1.117,-0.188,0.046
5052.430000000079,1.240,-0.150,0.181
5054.93200000008,0.978,-0.106,0.183
5057.4350000000795,0.821,0.555,0.309
5059.93700000008,0.992,0.901,0.347
5062.43900000008,0.695,-0.408,0.184
5064.942000000081,0.780,0.186,0.210
5067.444000000081,1.140,-0.122,-0.332
5069.947000000082,1.170,-0.984,-0.164
5072.449000000082,1.257,-0.716,0.131
5074.952000000083,1.603,0.024,-0.188
5077.454000000083,0.843,0.222,0.522
5079.956000000084,0.694,0.962,0.318
5082.4590000000835,0.694,0.962,0.318
5084.961000000084,0.327,0.159,-0.024
5087.464000000084,0.726,-0.202,0.193
5089.966000000084,1.562,0.301,-0.298
5092.469000000085,1.501,-0.423,-0.039
5094.971000000085,1.484,-0.916,-0.021
5097.474000000086,1.562,0.873,0.068
5099.976000000086,0.726,-0.051,0.249
5102.4780000000865,0.684,0.023,0.285
5104.981000000087,1.126,0.249,0.137
5107.4830000000875,1.048,-0.270,-0.191
5109.986000000087,1.100,-0.332,0.030
5112.488000000087,1.206,-0.202,0.230
5114.991000000087,0.941,-0.060,0.194
5117.493000000088,0.780,0.523,0.273
5119.996000000088,0.992,1.006,0.342
5119.996000000088,-1.534,0.444,-1.752
5122.498000000089,0.663,0.188,-0.345
5125.001000000088,1.264,1.456,-0.733
5127.503000000089,0.920,-0.977,0.249
5130.0060000000885,1.297,0.915,-0.079
5132.508000000089,1.019,-0.316,-0.618
5135.011000000089,1.030,-0.727,0.234
5137.513000000089,1.353,-0.079,0.144
5140.016000000089,1.147,-0.332,-0.023
5142.518000000089,1.398,1.038,0.165
5145.02000000009,0.714,-0.164,0.298
5147.523000000089,0.618,0.194,0.280
5150.02500000009,0.987,0.418,0.109
5152.528000000089,1.048,-0.294,0.101
5155.03000000009,1.401,-0.106,-0.238
5157.5330000000895,1.438,-0.227,0.066
5160.03500000009,1.140,-0.258,0.055
5162.53800000009,1.140,-0.258,0.055
5165.04000000009,1.038,0.918,0.531
5167.54200000009,0.876,0.273,-0.018
5170.04500000009,0.815,-0.368,0.209
5172.5470000000905,1.095,0.335,0.297
5175.05000000009,1.003,-0.345,-0.372
5177.552000000091,1.071,-0.869,0.063
5180.05500000009,1.172,-0.141,0.258
5182.557000000091,1.050,-0.066,0.152
5185.059000000091,0.757,0.152,0.155
5187.562000000091,0.887,1.308,0.514
5190.064000000091,0.438,-0.066,0.123
5192.567000000091,0.645,0.017,0.063
5195.069000000091,1.382,0.038,-0.325
5197.572000000091,1.312,-0.781,-0.160
5200.0740000000915,1.485,-0.934,0.065
5202.577000000091,1.905,0.461,-0.438
5205.079000000092,0.769,-0.096,0.555
5207.581000000092,0.769,-0.096,0.555
5210.084000000092,0.542,0.554,0.222
5212.586000000092,0.694,0.452,-0.055
5215.089000000092,0.938,-0.236,0.152
5217.591000000092,1.492,0.059,-0.281
5220.094000000092,1.449,-0.221,0.087
5222.596000000092,1.194,-0.407,0.023
5225.099000000092,1.097,0.901,0.517
5227.601000000092,0.840,0.266,0.014
5230.103000000093,0.826,-0.281,0.175
5232.6060000000925,1.081,0.282,0.290
5235.108000000093,1.015,-0.434,-0.383
5237.611000000093,1.086,-0.832,0.038
5240.113000000093,1.149,-0.095,0.253
5242.616000000093,1.054,0.021,0.148
5245.118000000093,0.780,0.086,0.098
5247.621000000093,0.917,1.296,0.496
5250.123000000093,0.917,1.296,0.496
5252.625000000094,0.422,-0.118,0.133
5255.128000000093,0.647,0.007,0.065
5257.630000000094,1.421,0.085,-0.360
5260.1330000000935,1.336,-0.807,-0.195
5262.635000000094,1.493,-1.002,0.090
5265.138000000094,1.922,0.438,-0.431
5267.640000000094,0.738,-0.018,0.577
5270.142000000094,0.530,0.612,0.270
5272.645000000094,0.703,0.387,0.009
5275.1470000000945,0.949,-0.322,0.140
5277.650000000094,1.470,0.101,-0.288
5280.152000000095,1.434,-0.189,0.124
5282.655000000094,1.194,-0.391,0.019
5285.157000000095,1.103,0.806,0.496
5287.660000000094,0.883,0.238,0.021
5290.162000000095,0.812,-0.302,0.212
5292.664000000095,0.812,-0.302,0.212
5295.167000000095,1.094,0.312,0.288
5297.669000000095,1.030,-0.371,-0.382
5300.172000000095,1.120,-0.832,0.059
5302.6740000000955,1.148,-0.110,0.257
5305.177000000095,1.043,-0.057,0.152
5307.679000000096,0.769,0.168,0.107
5310.182000000095,0.914,1.277,0.539
5312.684000000096,0.422,-0.161,0.124
5315.186000000096,0.655,-0.072,0.047
5317.689000000096,1.368,0.121,-0.306
5320.191000000096,1.288,-0.688,-0.119
5322.694000000096,1.523,-1.008,0.023
5325.196000000096,1.938,0.395,-0.415
5327.699000000096,0.742,-0.067,0.539
5330.201000000096,0.551,0.601,0.241
5332.704000000096,0.719,0.413,0.019
5335.2060000000965,0.945,-0.352,0.163
5337.708000000097,0.945,-0.352,0.163
5340.211000000097,1.456,0.065,-0.249
5342.713000000097,1.456,-0.160,0.065
5345.216000000097,1.121,-0.383,0.027
5347.718000000097,1.051,0.844,0.577
5350.221000000097,0.892,0.378,0.014
5352.723000000097,0.820,-0.388,0.253
5355.225000000098,1.062,0.279,0.295
5357.728000000097,0.993,-0.341,-0.435
5360.230000000098,1.074,-0.797,0.050
5362.7330000000975,1.170,-0.197,0.257
5365.235000000098,1.142,-0.108,0.090
5367.738000000098,0.787,0.081,0.257
5370.240000000098,0.890,1.365,0.394
5372.743000000098,0.415,-0.080,-0.013
5375.245000000098,0.655,-0.173,0.076
5377.7470000000985,0.655,-0.173,0.076
5380.250000000098,1.460,0.152,-0.266
5382.752000000099,1.347,-0.609,-0.173
5385.255000000098,1.503,-1.033,0.006
5387.757000000099,1.876,0.507,-0.391
5390.260000000098,0.742,-0.064,0.558
5392.762000000099,0.574,0.452,0.288
5395.265000000099,0.821,0.365,-0.024
5397.767000000099,1.003,-0.275,0.117
5400.269000000099,1.396,0.054,-0.200
5402.772000000099,1.425,-0.202,0.109
5405.2740000000995,1.104,-0.345,0.055
5407.777000000099,0.940,0.741,0.555
5410.2790000001,0.913,0.578,-0.007
5412.782000000099,0.789,-0.414,0.164
5415.2840000001,1.030,0.234,0.327
5417.787000000099,1.014,-0.325,-0.383
5420.2890000001,1.014,-0.325,-0.383
5422.7910000001,1.073,-0.883,-0.030
5425.2940000001,1.155,-0.249,0.257
5427.7960000001,1.230,-0.102,0.066
5430.2990000001,0.827,0.162,0.217
5432.8010000001,0.853,1.279,0.480
5435.3040000001,0.300,-0.104,0.101
5437.8060000001005,0.652,-0.108,0.077
5440.308000000101,1.517,0.297,-0.312
5442.811000000101,1.392,-0.674,-0.080
5445.313000000101,1.555,-1.158,-0.033
5447.816000000101,1.875,0.609,-0.360
5450.318000000101,0.711,-0.032,0.445
5452.821000000101,0.535,0.398,0.240
5455.323000000101,0.894,0.313,-0.017
5457.826000000101,1.024,-0.273,0.068
5460.328000000101,1.375,0.043,-0.149
5462.830000000102,1.412,-0.140,0.089
5465.3330000001015,1.412,-0.140,0.089
5467.835000000102,1.045,-0.294,0.097
5470.338000000102,0.915,0.777,0.581
5472.840000000102,0.938,0.482,-0.048
5475.343000000102,0.741,-0.402,0.256
5477.845000000102,0.978,0.232,0.284
5480.348000000102,1.035,-0.305,-0.406
5482.850000000102,1.076,-0.923,0.007
5485.352000000103,1.172,-0.322,0.269
5487.855000000102,1.170,-0.095,0.076
5490.357000000103,0.805,0.180,0.331
5492.860000000102,0.835,1.304,0.387
5495.362000000103,0.319,-0.145,0.117
5497.865000000103,0.632,-0.145,0.121
5500.367000000102,1.492,0.311,-0.296
5502.870000000102,1.371,-0.633,-0.082
5505.372000000101,1.561,-1.106,-0.008
5507.874000000102,1.561,-1.106,-0.008
5510.377000000101,1.871,0.640,-0.341
5512.879000000102,0.719,-0.049,0.456
5515.3820000001015,0.581,0.397,0.253
5517.884000000102,0.897,0.319,0.061
5520.387000000102,1.019,-0.254,-0.035
5522.889000000101,1.351,-0.052,-0.113
5525.392000000101,1.415,-0.227,0.109
5527.894000000101,1.023,-0.243,0.128
5530.396000000101,0.887,0.772,0.470
5532.8990000001,0.918,0.601,0.112
5535.4010000001,0.805,-0.610,0.207
5537.9040000001,1.003,0.362,0.297
5540.4060000001,1.038,-0.185,-0.369
5542.9090000001,1.068,-0.926,-0.079
5545.4110000001,1.167,-0.450,0.249
5547.9130000001005,1.306,-0.087,0.012
5550.4160000001,1.306,-0.087,0.012
5552.918000000101,0.829,0.115,0.409
5555.4210000001,0.815,1.264,0.384
5557.923000000101,0.353,0.042,0.059
5560.4260000001,0.688,-0.085,0.124
5562.928000000101,1.562,0.265,-0.354
5565.4310000001005,1.412,-0.583,-0.102
5567.933000000101,1.543,-1.066,-0.035
5570.435000000101,1.805,0.737,-0.290
5572.938000000101,0.717,-0.099,0.485
5575.4400000001015,0.574,0.222,0.282
5577.943000000101,0.934,0.285,0.105
5580.445000000102,1.030,-0.205,0.048
5582.948000000101,1.326,-0.070,-0.085
5585.450000000102,1.434,-0.203,0.107
5587.953000000101,1.043,-0.195,0.103
5590.455000000102,0.851,0.757,0.532
5592.957000000102,0.851,0.757,0.532
5595.460000000102,0.904,0.652,0.081
5597.962000000102,0.762,-0.533,0.240
5600.465000000102,0.992,0.327,0.305
5602.967000000102,1.039,-0.263,-0.387
5605.470000000102,1.061,-1.016,-0.052
5607.9720000001025,1.184,-0.435,0.249
5610.475000000102,1.373,0.032,0.016
5612.977000000103,0.845,0.085,0.353
5615.479000000103,0.836,1.120,0.297
5617.982000000103,0.335,0.101,0.038
5620.484000000103,0.651,-0.016,0.144
5622.987000000103,1.571,0.274,-0.338
5625.489000000103,1.431,-0.664,-0.166
5627.992000000103,1.554,-1.069,-0.001
5630.494000000103,1.780,0.788,-0.223
5632.996000000104,0.706,-0.055,0.367
5635.4990000001035,0.706,-0.055,0.367
5638.001000000104,0.593,0.199,0.237
5640.504000000104,0.980,0.340,-0.020
5643.006000000103,1.047,-0.268,-0.032
5645.509000000103,1.276,-0.113,-0.024
5648.011000000102,1.350,-0.185,0.132
5650.514000000102,0.960,-0.109,0.139
5653.0160000001015,0.803,0.640,0.467
5655.518000000102,0.984,0.711,0.132
5658.021000000102,0.809,-0.462,0.062
5660.523000000102,0.972,0.406,0.345
5663.026000000102,1.016,-0.231,-0.312
5665.528000000102,1.076,-1.091,-0.164
5668.031000000102,1.217,-0.509,0.284
5670.533000000102,1.438,0.069,-0.031
5673.036000000102,0.851,0.095,0.402
5675.538000000102,0.789,1.116,0.359
5678.040000000103,0.348,0.190,0.093
5680.543000000102,0.348,0.190,0.093
5683.045000000102,0.660,-0.155,0.148
5685.548000000102,1.531,0.265,-0.329
5688.050000000101,1.438,-0.546,-0.091
5690.553000000101,1.534,-0.983,0.012
5693.0550000001,1.749,0.774,-0.182
5695.5580000001,0.709,-0.118,0.357
5698.0600000000995,0.628,0.159,0.180
5700.5620000001,1.007,0.402,-0.020
5703.0650000001,1.100,-0.263,-0.104
5705.5670000001,1.273,-0.301,-0.017
5708.0700000001,1.313,-0.184,0.194
5710.5720000001,0.926,-0.036,0.187
5713.0750000001,0.774,0.637,0.398
5715.5770000001,0.949,0.726,0.187
5718.0790000001,0.733,-0.486,0.195
5720.5820000000995,0.733,-0.486,0.195
5723.084000000099,0.905,0.326,0.350
5725.587000000099,1.017,-0.177,-0.312
5728.089000000098,1.108,-1.038,-0.138
5730.592000000098,1.237,-0.548,0.230
5733.094000000097,1.515,0.023,-0.091
5735.597000000097,0.887,0.012,0.413
5738.099000000097,0.737,1.086,0.340
5740.601000000097,0.280,0.347,0.117
5743.104000000097,0.681,-0.191,0.141
5745.606000000097,1.603,0.142,-0.360
5748.109000000097,1.467,-0.494,0.009
5750.611000000097,1.522,-0.913,-0.059
5753.114000000097,1.672,0.820,-0.098
5755.616000000096,0.712,-0.122,0.293
5758.119000000096,0.673,0.144,0.188
5760.621000000096,1.027,0.324,0.101
5763.123000000096,1.087,-0.249,-0.106
5765.626000000096,1.087,-0.249,-0.106
5768.128000000095,1.225,-0.361,0.034
5770.631000000095,1.329,-0.163,0.145
5773.133000000094,0.944,-0.051,0.209
5775.636000000094,0.753,0.521,0.402
5778.1380000000945,0.934,0.868,0.265
5780.641000000094,0.726,-0.396,0.215
5783.143000000095,0.882,0.300,0.273
5785.645000000095,1.073,-0.203,-0.337
5788.148000000095,1.140,-1.047,-0.189
5790.650000000094,1.265,-0.594,0.265
5793.153000000094,1.569,0.065,-0.158
5795.655000000093,0.871,-0.016,0.484
5798.158000000093,0.748,1.021,0.230
5800.660000000093,0.336,0.378,0.068
5803.163000000092,0.727,-0.176,0.180
5805.665000000092,1.609,0.190,-0.341
5808.167000000092,1.609,0.190,-0.341
5810.670000000092,1.507,-0.429,-0.059
5813.172000000092,1.507,-0.899,-0.002
5815.675000000092,1.585,0.812,-0.020
5818.177000000092,0.718,-0.048,0.280
5820.680000000092,0.693,0.165,0.226
5823.182000000093,1.055,0.272,0.071
5825.684000000092,1.020,-0.369,-0.211
5828.187000000092,1.178,-0.368,0.062
5830.689000000091,1.243,-0.072,0.199
5833.192000000091,0.909,-0.008,0.188
5835.69400000009,0.745,0.383,0.313
5838.19700000009,0.972,1.000,0.222
5840.69900000009,0.715,-0.278,0.062
5843.202000000089,0.800,0.230,0.230
5845.704000000089,1.129,-0.173,-0.291
5848.206000000089,1.202,-1.025,-0.164
5850.709000000089,1.202,-1.025,-0.164
5853.211000000089,1.339,-0.735,0.203
5855.714000000089,1.652,0.117,-0.205
5858.2160000000895,0.870,0.047,0.570
5860.719000000089,0.680,1.024,0.265
5863.22100000009,0.376,0.342,0.008
5865.724000000089,0.765,-0.288,0.201
5868.22600000009,1.586,0.215,-0.363
5870.72800000009,1.448,-0.376,0.074
5873.23100000009,1.409,-0.830,-0.055
5875.733000000089,1.531,0.812,0.105
5878.236000000089,0.757,-0.047,0.152
5880.7380000000885,0.740,0.117,0.190
5883.241000000088,1.097,0.345,0.140
5885.743000000088,1.040,-0.382,-0.226
5888.246000000087,1.148,-0.445,0.102
5890.748000000087,1.254,-0.082,0.180
5893.250000000087,1.254,-0.082,0.180
5895.753000000087,0.891,-0.056,0.225
5898.255000000087,0.711,0.398,0.219
5900.758000000087,0.940,1.077,0.440
5903.2600000000875,0.631,-0.416,0.157
5905.763000000087,0.824,0.198,0.142
5908.265000000087,1.152,-0.118,-0.316
5910.767000000087,1.217,-0.946,-0.235
5913.270000000087,1.394,-0.774,0.141
5915.772000000086,1.780,0.117,-0.320
5918.275000000086,0.859,0.043,0.624
5920.7770000000855,0.652,0.995,0.206
5923.280000000085,0.375,0.395,-0.016
5925.782000000085,0.832,-0.366,0.257
5928.285000000084,1.615,0.195,-0.333
5930.787000000085,1.484,-0.379,-0.056
5933.289000000084,1.371,-0.736,-0.002
5935.792000000084,1.371,-0.736,-0.002
5938.2940000000835,1.422,0.920,0.209
5940.797000000083,0.759,0.045,0.107
5943.299000000083,0.801,-0.016,0.296
5945.802000000082,1.148,0.301,0.117
5948.304000000082,1.007,-0.338,-0.310
5950.807000000082,1.110,-0.478,0.115
5953.309000000081,1.204,-0.113,0.201
5955.811000000082,0.896,-0.129,0.234
5958.314000000081,0.702,0.324,0.225
5960.816000000082,0.954,1.307,0.366
5963.319000000081,0.617,-0.316,-0.056
5965.821000000082,0.780,0.090,0.155
5968.3240000000815,1.188,-0.066,-0.285
5970.826000000082,1.199,-0.939,-0.211
5973.329000000082,1.396,-0.836,0.187
5975.831000000082,1.812,0.184,-0.406
5978.333000000082,1.812,0.184,-0.406
5980.836000000082,0.845,0.043,0.688
5983.338000000082,0.609,0.862,0.287
5985.841000000081,0.389,0.398,-0.020
5988.343000000081,0.818,-0.296,0.257
5990.8460000000805,1.603,0.253,-0.282
5993.34800000008,1.506,-0.367,0.003
5995.85000000008,1.344,-0.763,-0.031
5998.35300000008,1.362,0.913,0.316
6000.8550000000805,0.773,0.168,0.047
6003.35800000008,0.756,-0.056,0.209
6005.860000000081,1.126,0.211,0.156
6008.36300000008,1.024,-0.376,-0.356
6010.865000000081,1.078,-0.504,0.191
6013.36800000008,1.179,-0.077,0.209
6015.870000000081,0.902,-0.085,0.202
6018.372000000081,0.706,0.303,0.266
6020.875000000081,0.706,0.303,0.266
6023.37700000008,0.931,1.289,0.387
6025.88000000008,0.631,-0.312,-0.008
6028.38200000008,0.758,0.126,0.137
6030.885000000079,1.243,-0.015,-0.288
6033.387000000079,1.219,-0.986,-0.263
6035.8900000000785,1.399,-0.957,0.149
6038.392000000078,1.851,0.206,-0.437
6040.894000000078,0.843,0.113,0.668
6043.397000000078,0.644,0.867,0.241
6045.899000000079,0.514,0.344,-0.087
6048.402000000078,0.847,-0.258,0.249
6050.904000000079,1.594,0.301,-0.320
6053.407000000078,1.491,-0.341,0.009
6055.909000000079,1.351,-0.763,-0.064
6058.4120000000785,1.371,0.933,0.327
6060.914000000079,0.774,0.086,0.019
6063.416000000079,0.749,-0.051,0.246
6065.919000000079,0.749,-0.051,0.246
6068.4210000000785,1.133,0.261,0.092
6070.924000000078,1.046,-0.344,-0.371
6073.426000000078,1.097,-0.493,0.156
6075.929000000077,1.180,-0.111,0.171
6078.431000000077,0.918,-0.018,0.201
6080.934000000077,0.698,0.334,0.234
6083.436000000077,0.961,1.246,0.401
6085.9380000000765,0.612,-0.372,-0.071
6088.441000000076,0.742,0.120,0.148
6090.943000000076,1.188,0.004,-0.290
6093.446000000075,1.196,-0.921,-0.274
6095.948000000075,1.428,-0.921,0.129
6098.451000000075,1.889,0.262,-0.360
6100.953000000074,0.867,0.100,0.590
6103.4550000000745,0.608,0.844,0.261
6105.958000000074,0.426,0.315,-0.044
6108.460000000075,0.426,0.315,-0.044
6110.963000000074,0.853,-0.241,0.242
6113.465000000075,1.590,0.194,-0.351
6115.968000000074,1.473,-0.388,0.082
6118.470000000075,1.293,-0.649,-0.022
6120.9730000000745,1.331,1.027,0.398
6123.475000000075,0.805,0.120,0.024
6125.977000000075,0.792,-0.138,0.198
6128.480000000075,1.112,0.265,0.199
6130.982000000075,0.980,-0.312,-0.379
6133.485000000074,1.078,-0.548,0.140
6135.987000000074,1.180,-0.200,0.206
6138.490000000073,0.948,-0.040,0.202
6140.992000000073,0.699,0.329,0.215
6143.495000000073,0.930,1.312,0.433
6145.997000000072,0.568,-0.363,0.015
6148.499000000073,0.694,0.128,0.151
6151.002000000073,0.694,0.128,0.151
6153.504000000074,1.222,0.003,-0.312
6156.007000000073,1.210,-0.945,-0.218
6158.509000000073,1.425,-0.931,0.132
6161.012000000073,1.897,0.371,-0.414
6163.514000000074,0.836,0.012,0.612
6166.0170000000735,0.574,0.703,0.265
6168.519000000073,0.499,0.378,-0.110
6171.021000000073,0.905,-0.205,0.242
6173.524000000073,1.576,0.167,-0.372
6176.026000000073,1.508,-0.395,0.030
6178.529000000072,1.309,-0.602,-0.039
6181.031000000073,1.271,1.019,0.440
6183.534000000072,0.789,0.144,0.050
6186.036000000073,0.788,-0.188,0.280
6188.538000000073,1.116,0.218,0.273
6191.041000000074,1.012,-0.355,-0.367
6193.543000000074,1.012,-0.355,-0.367
6196.046000000074,1.076,-0.610,0.124
6198.548000000073,1.172,-0.157,0.207
6201.051000000074,0.949,0.045,0.202
6203.5530000000745,0.715,0.237,0.139
6206.056000000074,0.934,1.202,0.467
6208.558000000074,0.487,-0.302,0.097
6211.060000000074,0.657,0.163,0.112
6213.563000000074,1.297,0.038,-0.310
6216.065000000073,1.284,-0.966,-0.216
6218.568000000073,1.480,-0.942,0.077
6221.070000000073,1.898,0.396,-0.432
6223.573000000073,0.741,0.037,0.746
6226.0750000000735,0.535,0.629,0.203
6228.578000000074,0.617,0.370,-0.039
6231.0800000000745,0.913,-0.278,0.265
6233.582000000075,1.520,0.148,-0.330
6236.085000000075,1.520,0.148,-0.330
6238.587000000074,1.475,-0.345,0.045
6241.090000000075,1.264,-0.473,-0.016
6243.592000000075,1.222,0.977,0.472
6246.095000000075,0.819,0.173,-0.055
6248.597000000075,0.798,-0.307,0.308
6251.100000000075,1.155,0.354,0.201
6253.602000000075,1.038,-0.345,-0.374
6256.104000000076,1.097,-0.799,0.069
6258.607000000076,1.165,-0.181,0.237
6261.109000000077,0.938,0.055,0.199
6263.6120000000765,0.709,0.261,0.188
6266.114000000076,0.937,1.248,0.434
6268.617000000077,0.537,-0.188,0.021
6271.119000000077,0.633,0.040,0.155
6273.621000000077,1.323,0.093,-0.290
6276.124000000077,1.280,-0.810,-0.212
6278.6260000000775,1.280,-0.810,-0.212
6281.129000000077,1.519,-0.969,0.061
6283.631000000078,1.920,0.433,-0.418
6286.134000000077,0.759,-0.060,0.530
6288.636000000078,0.512,0.605,0.276
6291.139000000077,0.641,0.499,-0.075
6293.641000000078,0.964,-0.251,0.210
6296.143000000078,1.484,-0.020,-0.346
6298.646000000079,1.440,-0.281,0.108
6301.148000000079,1.188,-0.306,0.034
6303.651000000079,1.128,0.929,0.496
6306.1530000000785,0.874,0.232,-0.051
6308.656000000079,0.836,-0.337,0.187
6311.1580000000795,1.117,0.339,0.293
6313.661000000079,1.019,-0.356,-0.383
6316.163000000079,1.097,-0.822,0.007
6318.665000000079,1.188,-0.173,0.280
6321.168000000079,1.004,-0.024,0.112
6323.670000000078,1.004,-0.024,0.112
6326.173000000078,0.722,0.159,0.148
6328.675000000078,0.894,1.284,0.478
6331.178000000078,0.441,-0.066,0.090
6333.6800000000785,0.620,-0.023,0.061
6336.183000000078,1.362,0.043,-0.289
6338.685000000079,1.305,-0.738,-0.199
6341.187000000078,1.527,-0.915,0.068
6343.690000000078,1.944,0.484,-0.439
6346.192000000077,0.770,-0.082,0.562
6348.695000000078,0.511,0.538,0.240
6351.197000000078,0.673,0.440,0.003
6353.700000000078,0.921,-0.277,0.165
6356.2020000000775,1.456,0.012,-0.285
6358.704000000078,1.469,-0.231,0.117
6361.207000000078,1.211,-0.367,0.014
6363.709000000077,1.100,0.912,0.547
6366.212000000077,1.100,0.912,0.547
6368.714000000077,0.840,0.281,-0.001
6371.217000000077,0.805,-0.310,0.194
6373.719000000077,1.070,0.269,0.327
6376.222000000078,1.038,-0.396,-0.366
6378.724000000078,1.094,-0.890,0.050
6381.226000000079,1.148,-0.141,0.288
6383.7290000000785,1.055,-0.052,0.101
6386.231000000078,0.750,0.137,0.128
6388.734000000079,0.890,1.253,0.517
6391.236000000079,0.413,-0.048,0.115
6393.739000000079,0.605,-0.027,0.087
6396.241000000078,1.409,0.081,-0.310
6398.744000000079,1.335,-0.752,-0.156
6401.246000000079,1.561,-1.016,0.023
6403.74800000008,1.904,0.461,-0.466
6406.25100000008,0.722,-0.086,0.626
6408.753000000081,0.722,-0.086,0.626
6411.25600000008,0.529,0.565,0.242
6413.75800000008,0.762,0.367,0.068
6416.2610000000805,0.984,-0.302,0.184
6418.763000000081,1.434,0.007,-0.221
6421.266000000081,1.449,-0.095,0.109
6423.76800000008,1.140,-0.313,0.022
6426.2700000000805,1.039,0.829,0.543
6428.773000000081,0.887,0.321,0.037
6431.2750000000815,0.815,-0.383,0.282
6433.778000000081,1.074,0.293,0.273
6436.280000000082,1.037,-0.392,-0.423
6438.783000000081,1.102,-0.892,0.027
6441.285000000082,1.163,-0.226,0.257
6443.788000000081,1.116,-0.013,0.094
6446.290000000082,0.767,0.123,0.228
6448.792000000081,0.922,1.312,0.418
6451.295000000081,0.438,-0.046,-0.001
6453.7970000000805,0.438,-0.046,-0.001
6456.300000000081,0.602,-0.135,0.124
6458.8020000000815,1.420,0.139,-0.328
6461.305000000081,1.326,-0.598,-0.138
6463.807000000081,1.538,-1.031,0.022
6466.309000000081,1.896,0.498,-0.447
6468.812000000081,0.735,-0.102,0.586
6471.31400000008,0.501,0.562,0.326
6473.81700000008,0.812,0.415,0.004
6476.31900000008,1.021,-0.306,0.128
6478.82200000008,1.420,-0.049,-0.254
6481.324000000081,1.426,-0.129,0.103
6483.82700000008,1.059,-0.231,0.087
6486.329000000081,0.972,0.770,0.545
6488.83100000008,0.930,0.438,-0.063
6491.33400000008,0.836,-0.413,0.116
6493.836000000079,0.836,-0.413,0.116
6496.33900000008,1.030,0.292,0.295
6498.84100000008,1.038,-0.312,-0.397
6501.34400000008,1.092,-0.860,-0.075
6503.84600000008,1.179,-0.304,0.288
6506.34900000008,1.204,-0.094,0.056
6508.851000000081,0.797,0.112,0.297
6511.353000000081,0.816,1.359,0.503
6513.856000000081,0.343,-0.023,0.029
6516.358000000081,0.624,-0.243,0.086
6518.861000000081,1.496,0.170,-0.317
6521.363000000081,1.392,-0.557,-0.096
6523.866000000081,1.524,-1.051,-0.024
6526.368000000081,1.867,0.569,-0.348
6528.871000000081,0.746,-0.070,0.440
6531.373000000081,0.577,0.390,0.215
6533.875000000082,0.875,0.394,0.081
6536.3780000000825,0.985,-0.310,0.061
6538.880000000083,0.985,-0.310,0.061
6541.383000000083,1.339,-0.035,-0.119
6543.885000000082,1.397,-0.160,0.124
6546.388000000083,1.045,-0.258,0.109
6548.890000000083,0.890,0.699,0.548
6551.3920000000835,0.910,0.652,0.117
6553.895000000083,0.770,-0.483,0.240
6556.397000000084,0.987,0.199,0.312
6558.900000000083,1.040,-0.277,-0.414
6561.402000000084,1.104,-0.899,-0.060
6563.905000000084,1.175,-0.356,0.293
6566.407000000085,1.303,-0.067,-0.028
6568.910000000084,0.859,0.087,0.265
6571.412000000084,0.847,1.242,0.397
6573.914000000084,0.326,0.042,0.043
6576.417000000085,0.656,-0.179,0.097
6578.919000000085,0.656,-0.179,0.097
6581.422000000085,1.538,0.281,-0.306
6583.9240000000855,1.390,-0.582,-0.098
6586.427000000085,1.548,-1.094,-0.017
6588.929000000086,1.819,0.641,-0.298
6591.432000000085,0.694,-0.028,0.523
6593.934000000086,0.590,0.315,0.280
6596.436000000085,0.977,0.238,0.038
6598.939000000085,1.023,-0.312,0.014
6601.441000000084,1.305,-0.024,-0.041
6603.944000000085,1.392,-0.106,0.105
6606.446000000085,0.992,-0.189,0.126
6608.949000000085,0.871,0.654,0.469
6611.451000000085,0.969,0.725,-0.008
6613.954000000085,0.761,-0.481,0.093
6616.456000000086,0.970,0.273,0.288
6618.958000000086,1.032,-0.233,-0.361
6621.461000000086,1.082,-0.942,-0.110
6623.963000000086,1.082,-0.942,-0.110
6626.466000000086,1.194,-0.513,0.249
6628.968000000086,1.378,-0.067,-0.024
6631.471000000086,0.840,0.155,0.469
6633.973000000086,0.805,1.233,0.319
6636.475000000086,0.371,0.069,0.035
6638.978000000086,0.663,-0.181,0.134
6641.480000000085,1.562,0.328,-0.312
6643.983000000086,1.405,-0.471,-0.103
6646.485000000086,1.523,-1.098,-0.028
6648.988000000086,1.765,0.703,-0.272
6651.490000000085,0.694,-0.041,0.404
6653.993000000086,0.601,0.282,0.280
6656.495000000086,0.996,0.344,-0.075
6658.997000000087,1.101,-0.229,-0.024
6661.500000000086,1.296,-0.141,-0.047
6664.002000000087,1.352,-0.149,0.155
6666.5050000000865,1.352,-0.149,0.155
6669.007000000087,0.944,-0.141,0.128
6671.510000000087,0.793,0.694,0.465
6674.012000000087,0.976,0.749,0.020
6676.515000000087,0.767,-0.530,0.093
6679.017000000087,0.959,0.288,0.324
6681.5190000000875,1.024,-0.191,-0.330
6684.022000000088,1.098,-0.953,-0.130
6686.524000000089,1.219,-0.510,0.246
6689.027000000088,1.429,-0.056,-0.074
6691.529000000088,0.837,0.115,0.516
6694.032000000088,0.771,1.228,0.315
6696.534000000089,0.319,0.089,0.055
6699.0370000000885,0.690,-0.169,0.142
6701.539000000088,1.576,0.248,-0.304
6704.041000000088,1.405,-0.544,-0.062
6706.544000000088,1.509,-1.028,-0.028
6709.046000000088,1.509,-1.028,-0.028
6711.549000000088,1.737,0.800,-0.179
6714.051000000089,0.728,-0.048,0.355
6716.554000000088,0.628,0.155,0.164
6719.056000000088,1.014,0.331,-0.063
6721.558000000088,1.069,-0.191,-0.013
6724.061000000089,1.264,-0.183,0.009
6726.563000000089,1.357,-0.227,0.141
6729.066000000089,0.962,-0.141,0.168
6731.568000000088,0.781,0.640,0.456
6734.071000000089,0.945,0.792,0.222
6736.573000000089,0.759,-0.481,0.187
6739.076000000089,0.933,0.300,0.312
6741.57800000009,1.030,-0.194,-0.244
6744.080000000089,1.073,-0.989,-0.160
6746.583000000089,1.219,-0.562,0.241
6749.085000000088,1.498,0.027,-0.057
6751.588000000089,1.498,0.027,-0.057
6754.090000000089,0.862,0.074,0.348
6756.593000000089,0.766,1.045,0.315
6759.0950000000885,0.324,0.209,0.071
6761.598000000089,0.725,-0.101,0.090
6764.1000000000895,1.597,0.288,-0.363
6766.60200000009,1.422,-0.577,-0.009
6769.10500000009,1.507,-1.023,-0.044
6771.60700000009,1.655,0.836,-0.070
6774.11000000009,0.726,-0.055,0.355
6776.61200000009,0.675,0.156,0.249
6779.11500000009,1.038,0.269,0.097
6781.61700000009,1.012,-0.278,-0.087
6784.12000000009,1.234,-0.195,0.042
6786.62200000009,1.342,-0.149,0.131
6789.124000000091,0.959,-0.066,0.171
6791.627000000091,0.757,0.579,0.417
6794.129000000092,0.757,0.579,0.417
6796.6320000000915,0.930,0.811,0.232
6799.134000000091,0.730,-0.496,0.245
6801.637000000092,0.925,0.351,0.312
6804.139000000092,1.069,-0.220,-0.351
6806.642000000092,1.113,-1.086,-0.133
6809.144000000091,1.226,-0.621,0.280
6811.646000000092,1.519,0.087,-0.077
6814.149000000091,0.862,0.156,0.409
6816.651000000091,0.777,1.007,0.273
6819.1540000000905,0.296,0.269,0.065
6821.656000000091,0.715,-0.127,0.154
6824.159000000091,1.609,0.287,-0.320
6826.661000000091,1.449,-0.516,-0.032
6829.163000000091,1.514,-0.942,-0.057
6831.666000000092,1.640,0.820,-0.057
6834.168000000092,0.699,-0.129,0.305
6836.671000000092,0.699,-0.129,0.305
6839.173000000092,0.679,0.109,0.298
6841.676000000092,1.084,0.382,0.121
6844.178000000093,1.061,-0.277,-0.146
6846.681000000092,1.209,-0.332,0.026
6849.183000000092,1.301,-0.188,0.123
6851.685000000092,0.934,-0.016,0.226
6854.188000000092,0.742,0.555,0.342
6856.6900000000915,0.959,0.819,0.155
6859.193000000091,0.733,-0.473,0.086
6861.695000000092,0.890,0.331,0.257
6864.198000000091,1.086,-0.150,-0.332
6866.700000000092,1.131,-1.039,-0.188
6869.203000000092,1.300,-0.658,0.243
6871.705000000093,1.581,0.094,-0.142
6874.207000000093,0.890,0.014,0.610
6876.710000000093,0.767,1.050,0.253
6879.212000000092,0.336,0.371,0.019
6881.715000000093,0.336,0.371,0.019
6884.217000000093,0.730,-0.233,0.195
6886.720000000093,1.586,0.146,-0.358
6889.222000000093,1.465,-0.479,-0.028
6891.725000000093,1.480,-0.882,0.024
6894.2270000000935,1.607,0.897,-0.033
6896.729000000094,0.751,-0.133,0.223
6899.232000000095,0.715,0.094,0.234
6901.734000000095,1.053,0.410,0.068
6904.237000000095,1.039,-0.270,-0.205
6906.739000000094,1.212,-0.352,0.050
6909.242000000095,1.313,-0.157,0.188
6911.744000000095,0.934,-0.075,0.214
6914.246000000096,0.757,0.484,0.396
6916.749000000095,0.930,0.922,0.187
6919.251000000096,0.711,-0.419,0.074
6921.754000000095,0.848,0.222,0.280
6924.256000000096,0.848,0.222,0.280
6926.7590000000955,1.109,-0.181,-0.316
6929.261000000096,1.163,-1.056,-0.227
6931.764000000096,1.277,-0.591,0.215
6934.266000000096,1.609,0.090,-0.226
6936.768000000096,0.873,0.014,0.562
6939.271000000097,0.730,0.988,0.265
6941.773000000097,0.321,0.371,0.006
6944.276000000097,0.738,-0.182,0.181
6946.778000000097,1.598,0.132,-0.345
6949.281000000097,1.509,-0.419,-0.027
6951.783000000098,1.480,-0.883,-0.008
6954.286000000097,1.586,0.860,-0.013
6956.788000000097,0.715,-0.094,0.188
6959.290000000097,0.715,0.193,0.261
6961.793000000097,1.081,0.344,0.038
6964.2950000000965,1.034,-0.329,-0.176
6966.798000000096,1.034,-0.329,-0.176
6969.300000000097,1.168,-0.372,0.090
6971.803000000096,1.284,-0.101,0.180
6974.305000000097,0.949,-0.031,0.210
6976.808000000096,0.753,0.402,0.324
6979.310000000097,0.952,0.965,0.222
6981.812000000096,0.686,-0.332,0.102
6984.315000000096,0.854,0.295,0.237
6986.8170000000955,1.133,-0.203,-0.310
6989.320000000096,1.168,-1.077,-0.202
6991.8220000000965,1.285,-0.692,0.191
6994.325000000096,1.603,0.090,-0.182
6996.827000000096,0.876,0.017,0.598
6999.329000000096,0.706,1.065,0.262
7001.832000000096,0.312,0.344,0.069
7004.334000000095,0.718,-0.275,0.175
7006.837000000095,1.577,0.242,-0.337
7009.339000000095,1.577,0.242,-0.337
7011.842000000095,1.476,-0.398,0.006
7014.344000000096,1.449,-0.879,-0.008
7016.847000000096,1.568,0.780,0.059
7019.349000000097,0.753,-0.022,0.228
7021.851000000097,0.701,0.187,0.195
7024.354000000097,1.109,0.391,0.007
7026.856000000096,1.070,-0.384,-0.238
7029.359000000097,1.165,-0.398,0.101
7031.861000000097,1.261,-0.080,0.210
7034.364000000097,0.898,-0.005,0.222
7036.866000000096,0.726,0.370,0.273
7039.369000000097,0.949,1.059,0.344
7041.871000000097,0.672,-0.376,0.139
7044.373000000098,0.813,0.173,0.211
7046.876000000098,1.093,-0.213,-0.346
7049.378000000099,1.168,-0.966,-0.185
7051.8810000000985,1.303,-0.751,0.202
7054.383000000098,1.303,-0.751,0.202
7056.886000000099,1.709,0.061,-0.268
7059.388000000099,0.884,0.086,0.523
7061.891000000099,0.662,1.014,0.305
7064.393000000098,0.368,0.392,0.007
7066.895000000099,0.795,-0.289,0.206
7069.398000000099,1.629,0.178,-0.402
7071.9000000001,1.475,-0.385,0.063
7074.403000000099,1.418,-0.830,-0.031
7076.9050000001,1.479,0.845,0.149
7079.4080000000995,0.738,-0.004,0.195
7081.9100000001,0.737,0.081,0.206
7084.4130000001,1.077,0.303,0.172
7086.9150000001,1.027,-0.328,-0.258
7089.4170000000995,1.168,-0.366,0.128
7091.920000000099,1.269,-0.130,0.123
7094.422000000099,0.912,-0.124,0.249
7096.925000000099,0.912,-0.124,0.249
7099.4270000001,0.732,0.405,0.249
7101.930000000099,0.938,1.128,0.444
7104.432000000099,0.648,-0.376,0.142
7106.934000000099,0.819,0.132,0.184
7109.437000000099,1.137,-0.171,-0.278
7111.9390000000985,1.167,-0.911,-0.226
7114.442000000098,1.300,-0.734,0.152
7116.944000000099,1.704,0.090,-0.265
7119.447000000098,0.909,0.065,0.526
7121.949000000099,0.711,0.996,0.274
7124.452000000098,0.342,0.358,-0.031
7126.954000000099,0.765,-0.258,0.149
7129.456000000098,1.597,0.222,-0.352
7131.959000000098,1.465,-0.438,0.037
7134.461000000098,1.444,-0.848,-0.022
7136.964000000098,1.479,0.915,0.144
7139.466000000099,1.479,0.915,0.144
7141.969000000098,0.715,0.077,0.211
7144.471000000098,0.719,0.090,0.181
7146.974000000098,1.043,0.157,0.184
7149.476000000099,1.009,-0.368,-0.250
7151.978000000099,1.144,-0.322,0.133
7154.481000000099,1.235,-0.126,0.202
7156.983000000099,0.894,-0.059,0.222
7159.486000000099,0.769,0.366,0.249
7161.988000000099,0.968,1.154,0.422
7164.491000000099,0.612,-0.359,0.105
7166.9930000000995,0.746,0.144,0.210
7169.496000000099,1.124,-0.122,-0.328
7171.9980000001,1.199,-0.997,-0.166
7174.5000000001,1.344,-0.832,0.199
7177.003000000101,1.741,0.112,-0.283
7179.505000000101,0.889,0.186,0.590
7182.008000000102,0.663,0.873,0.272
7184.510000000102,0.663,0.873,0.272
7187.013000000102,0.395,0.300,-0.060
7189.515000000101,0.803,-0.227,0.187
7192.017000000102,1.577,0.269,-0.312
7194.520000000101,1.475,-0.369,-0.017
7197.022000000101,1.429,-0.794,-0.060
7199.5250000001015,1.384,0.894,0.277
7202.027000000102,0.765,0.146,-0.008
7204.5300000001025,0.762,-0.074,0.211
7207.032000000103,1.115,0.228,0.202
7209.5350000001035,1.065,-0.302,-0.376
7212.037000000104,1.112,-0.582,0.128
7214.539000000104,1.211,-0.146,0.203
7217.042000000104,0.934,-0.039,0.184
7219.544000000104,0.762,0.360,0.175
7222.047000000104,0.920,1.234,0.469
7224.549000000105,0.920,1.234,0.469
7227.052000000105,0.530,-0.356,0.078
7229.554000000106,0.688,0.062,0.148
7232.057000000106,1.219,0.014,-0.307
7234.559000000107,1.253,-0.883,-0.212
7237.061000000107,1.449,-1.031,0.132
7239.564000000108,1.882,0.228,-0.384
7242.066000000108,0.831,0.121,0.632
7244.569000000108,0.581,0.757,0.194
7247.071000000107,0.553,0.344,-0.028
7249.574000000108,0.918,-0.249,0.211
7252.076000000108,1.532,0.146,-0.332
7254.579000000109,1.480,-0.319,0.035
7257.081000000109,1.265,-0.520,-0.035
7259.58300000011,1.217,0.960,0.472
7262.08600000011,0.827,0.241,0.003
7264.588000000111,0.835,-0.278,0.293
7267.09100000011,0.835,-0.278,0.293
7269.593000000111,1.081,0.274,0.202
7272.0960000001105,0.985,-0.250,-0.435
7274.598000000111,1.055,-0.742,0.055
7277.100000000111,1.163,-0.298,0.190
7279.603000000112,1.084,-0.039,0.179
7282.105000000112,0.780,0.234,0.199
7284.608000000113,0.867,1.312,0.426
7287.110000000113,0.449,-0.188,0.023
7289.613000000114,0.640,-0.035,0.097
7292.115000000114,1.335,0.078,-0.314
7294.618000000114,1.305,-0.746,-0.156
7297.120000000114,1.480,-1.060,0.055
7299.622000000114,1.915,0.512,-0.419
7302.125000000114,0.797,0.017,0.562
7304.627000000113,0.584,0.511,0.280
7307.130000000114,0.584,0.511,0.280
7309.632000000114,0.748,0.351,-0.028
7312.135000000115,0.972,-0.174,0.164
7314.637000000115,1.469,0.062,-0.274
7317.140000000115,1.436,-0.356,0.081
7319.642000000115,1.184,-0.345,0.037
7322.144000000115,1.030,0.925,0.554
7324.6470000001145,0.853,0.413,0.024
7327.149000000114,0.815,-0.399,0.222
7329.652000000115,1.101,0.234,0.334
7332.154000000115,1.012,-0.254,-0.354
7334.657000000116,1.061,-0.841,0.009
7337.159000000116,1.155,-0.285,0.237
7339.662000000117,1.101,-0.001,0.140
7342.164000000117,0.809,0.188,0.120
7344.6660000001175,0.913,1.215,0.483
7347.169000000117,0.387,-0.143,0.101
7349.671000000118,0.628,0.011,0.055
7352.174000000117,0.628,0.011,0.055
7354.676000000118,1.438,0.118,-0.317
7357.179000000118,1.352,-0.778,-0.203
7359.681000000119,1.555,-1.067,0.015
7362.184000000119,1.881,0.636,-0.439
7364.68600000012,0.711,0.016,0.483
7367.18800000012,0.569,0.378,0.271
7369.691000000121,0.871,0.362,-0.038
7372.193000000121,1.022,-0.228,0.105
7374.696000000121,1.340,-0.079,-0.158
7377.198000000121,1.404,-0.254,0.097
7379.701000000121,1.100,-0.148,0.109
7382.203000000121,0.918,0.792,0.534
7384.705000000122,0.878,0.499,0.077
7387.208000000122,0.762,-0.477,0.246
7389.710000000123,0.998,0.342,0.359
7392.213000000123,0.998,0.342,0.359
7394.715000000124,1.047,-0.320,-0.398
7397.218000000124,1.142,-1.028,-0.110
7399.720000000125,1.203,-0.426,0.284
7402.223000000125,1.248,0.065,0.047
7404.725000000124,0.836,0.175,0.242
7407.2270000001245,0.836,1.179,0.363
7409.730000000124,0.311,0.063,0.051
7412.232000000124,0.634,-0.118,0.123
7414.735000000124,1.507,0.215,-0.320
7417.237000000125,1.414,-0.641,-0.106
7419.740000000125,1.578,-1.001,-0.072
7422.242000000126,1.797,0.686,-0.294
7424.745000000125,0.667,-0.118,0.499
7427.247000000126,0.603,0.318,0.309
7429.749000000125,0.978,0.406,0.050
7432.252000000125,0.978,0.406,0.050
7434.7540000001245,1.029,-0.258,-0.012
7437.257000000125,1.289,-0.231,-0.078
7439.7590000001255,1.384,-0.185,0.124
7442.262000000126,1.001,-0.022,0.180
7444.7640000001265,0.831,0.720,0.438
7447.267000000127,0.949,0.581,0.063
7449.769000000128,0.793,-0.538,0.188
7452.271000000128,0.944,0.297,0.289
7454.774000000128,1.054,-0.221,-0.384
7457.276000000128,1.121,-1.016,-0.137
7459.779000000128,1.191,-0.423,0.262
7462.281000000128,1.336,0.016,0.021
7464.784000000129,0.871,0.062,0.462
7467.286000000129,0.813,1.190,0.312
7469.78800000013,0.345,0.194,0.038
7472.29100000013,0.676,-0.210,0.123
7474.793000000131,1.565,0.117,-0.341
7477.296000000131,1.565,0.117,-0.341
7479.798000000132,1.440,-0.528,-0.031
7482.301000000131,1.534,-0.908,0.012
7484.803000000131,1.712,0.789,-0.203
7487.3060000001315,0.730,-0.094,0.342
7489.808000000132,0.680,0.199,0.140
7492.310000000132,1.026,0.312,0.116
7494.813000000133,1.035,-0.268,-0.080
7497.315000000133,1.206,-0.310,0.015
7499.818000000134,1.336,-0.094,0.180
7502.320000000134,0.936,-0.051,0.214
7504.823000000135,0.765,0.577,0.404
7507.325000000135,0.928,0.818,0.256
7509.828000000135,0.706,-0.388,0.155
7512.3300000001345,0.913,0.230,0.249
7514.832000000135,1.074,-0.263,-0.332
7517.335000000136,1.118,-0.991,-0.188
7519.837000000136,1.118,-0.991,-0.188
7522.340000000137,1.217,-0.546,0.235
7524.842000000137,1.542,0.101,-0.118
7527.345000000138,0.922,0.034,0.438
7529.847000000138,0.765,1.027,0.288
7532.350000000138,0.339,0.342,0.054
7534.852000000138,0.706,-0.212,0.173
7537.354000000138,1.578,0.147,-0.368
7539.857000000137,1.477,-0.424,0.050
7542.359000000137,1.509,-0.885,-0.060
7544.862000000137,1.618,0.860,0.019
7547.364000000138,0.691,-0.077,0.273
7549.867000000138,0.694,0.162,0.266
7552.369000000139,1.068,0.237,0.089
7554.871000000139,1.053,-0.352,-0.194
7557.37400000014,1.202,-0.312,0.081
7559.87600000014,1.270,-0.018,0.172
7562.37900000014,1.270,-0.018,0.172
7564.88100000014,0.914,-0.008,0.173
7567.38400000014,0.797,0.425,0.350
7569.8860000001405,0.962,0.960,0.312
7572.389000000141,0.699,-0.430,0.156
7574.8910000001415,0.854,0.258,0.234
7577.393000000142,1.093,-0.247,-0.352
7579.8960000001425,1.188,-1.031,-0.191
7582.398000000143,1.273,-0.608,0.222
7584.9010000001435,1.563,0.077,-0.141
7587.403000000144,0.894,0.092,0.496
7589.906000000144,0.757,1.050,0.188
7592.408000000143,0.370,0.331,0.061
7594.911000000144,0.706,-0.270,0.124
7597.413000000144,1.543,0.163,-0.330
7599.915000000145,1.465,-0.316,-0.005
7602.418000000145,1.507,-0.855,-0.033
7604.920000000146,1.507,-0.855,-0.033
7607.423000000146,1.543,0.812,0.038
7609.925000000147,0.734,-0.047,0.202
7612.428000000146,0.675,0.098,0.212
7614.930000000147,1.097,0.300,0.066
7617.433000000146,1.124,-0.364,-0.227
7619.935000000147,1.196,-0.376,0.023
7622.437000000147,1.246,-0.114,0.230
7624.940000000148,0.889,0.023,0.242
7627.442000000148,0.741,0.394,0.227
7629.945000000149,0.921,1.047,0.438
7632.447000000149,0.600,-0.426,0.144
7634.95000000015,0.784,0.140,0.176
7637.45200000015,1.168,-0.138,-0.346
7639.954000000151,1.237,-0.866,-0.149
7642.45700000015,1.354,-0.741,0.140
7644.959000000151,1.757,0.086,-0.328
7647.4620000001505,1.757,0.086,-0.328
7649.964000000151,0.827,0.055,0.668
7652.4670000001515,0.665,0.899,0.187
7654.969000000152,0.444,0.412,-0.044
7657.472000000153,0.839,-0.298,0.237
7659.974000000153,1.597,0.199,-0.337
7662.476000000153,1.476,-0.341,0.026
7664.979000000154,1.395,-0.682,-0.028
7667.481000000154,1.404,0.867,0.212
7669.984000000154,0.730,0.008,0.116
7672.486000000154,0.757,-0.041,0.323
7674.989000000154,1.144,0.234,0.108
7677.491000000155,1.019,-0.341,-0.341
7679.994000000155,1.105,-0.376,0.160
7679.994000000155,-0.171,-2.000,-0.377
7682.496000000156,1.999,-0.689,-0.145
7684.999000000155,-0.007,0.797,1.951
7687.501000000156,1.086,0.465,-0.447
7690.004000000155,0.219,0.351,0.014
7692.506000000156,0.990,0.179,0.383
7695.0090000001555,1.094,-0.291,-0.226
7697.511000000156,1.443,0.123,-0.187
7700.014000000156,1.512,-0.238,0.027
7702.516000000156,1.519,-1.088,-0.035
7705.0180000001565,1.800,0.663,-0.330
7707.521000000156,0.709,0.023,0.563
7710.023000000157,0.498,0.550,0.199
7712.526000000156,0.746,0.425,-0.088
7715.028000000157,0.952,-0.207,0.206
7717.531000000156,1.539,0.164,-0.297
7720.033000000157,1.477,-0.274,0.030
7722.5360000001565,1.477,-0.274,0.030
7725.038000000157,1.249,-0.602,-0.035
7727.540000000157,1.219,0.904,0.452
7730.043000000157,0.781,0.137,0.031
7732.545000000157,0.780,-0.195,0.279
7735.048000000157,1.117,0.235,0.172
7737.5500000001575,1.015,-0.255,-0.340
7740.053000000157,1.097,-0.621,0.112
7742.555000000158,1.227,-0.188,0.181
7745.057000000158,0.975,-0.004,0.168
7747.560000000158,0.717,0.324,0.136
7750.062000000158,0.959,1.280,0.523
7752.565000000158,0.506,-0.322,0.043
7755.067000000158,0.675,0.011,0.188
7757.570000000158,1.277,0.021,-0.301
7760.072000000158,1.225,-0.868,-0.174
7762.575000000158,1.431,-1.048,0.102
7765.0770000001585,1.909,0.347,-0.405
7767.579000000159,1.909,0.347,-0.405
7770.082000000159,0.813,0.097,0.690
7772.584000000159,0.543,0.719,0.220
7775.087000000159,0.568,0.415,-0.086
7777.589000000159,0.944,-0.160,0.187
7780.092000000159,1.585,0.131,-0.314
7782.594000000159,1.496,-0.399,0.038
7785.097000000159,1.226,-0.582,0.035
7787.599000000159,1.190,0.956,0.460
7790.10100000016,0.780,0.179,-0.013
7792.604000000159,0.784,-0.285,0.348
7795.10600000016,1.102,0.202,0.276
7797.6090000001595,0.978,-0.263,-0.324
7800.11100000016,1.078,-0.641,0.124
7802.61400000016,1.204,-0.203,0.219
7805.11600000016,1.027,0.023,0.163
7807.61900000016,1.027,0.023,0.163
7810.12100000016,0.753,0.262,0.209
7812.623000000161,0.930,1.274,0.405
7815.12600000016,0.483,-0.200,0.003
7817.628000000161,0.699,0.062,0.128
7820.13100000016,1.350,0.021,-0.361
7822.633000000161,1.273,-0.888,-0.185
7825.1360000001605,1.459,-1.095,0.086
7827.638000000161,1.917,0.517,-0.473
7830.140000000161,0.772,0.031,0.600
7832.643000000161,0.555,0.534,0.237
7835.145000000161,0.659,0.404,-0.062
7837.648000000161,0.976,-0.164,0.230
7840.1500000001615,1.500,0.100,-0.314
7842.653000000161,1.480,-0.304,0.046
7845.155000000162,1.154,-0.421,0.058
7847.658000000161,1.078,0.883,0.543
7850.160000000162,0.891,0.324,0.047
7852.662000000162,0.891,0.324,0.047
7855.165000000162,0.813,-0.332,0.155
7857.667000000162,1.094,0.309,0.287
7860.170000000162,1.007,-0.335,-0.406
7862.672000000162,1.062,-0.890,0.027
7865.175000000162,1.162,-0.252,0.226
7867.6770000001625,1.101,0.084,0.103
7870.180000000162,0.784,0.201,0.116
7872.682000000163,0.934,1.175,0.483
7875.184000000163,0.407,-0.106,0.066
7877.687000000163,0.655,0.012,0.137
7880.189000000163,1.422,0.162,-0.345
7882.692000000163,1.315,-0.798,-0.155
7885.194000000163,1.527,-1.095,0.053
7887.697000000163,1.890,0.499,-0.453
7890.199000000163,0.714,-0.032,0.617
7892.702000000163,0.540,0.507,0.230
7895.204000000163,0.540,0.507,0.230
7897.706000000164,0.796,0.418,0.023
7900.2090000001635,1.017,-0.205,0.144
7902.711000000164,1.433,-0.043,-0.263
7905.214000000164,1.430,-0.211,0.092
7907.716000000164,1.062,-0.195,0.094
7910.219000000164,0.983,0.824,0.487
7912.721000000164,0.926,0.336,-0.078
7915.223000000165,0.805,-0.457,0.233
7917.726000000164,1.026,0.342,0.321
7920.228000000165,1.003,-0.301,-0.353
7922.731000000164,1.090,-0.970,-0.020
7925.233000000165,1.202,-0.317,0.290
7927.7360000001645,1.172,0.043,0.087
7930.238000000165,0.781,0.219,0.269
7932.741000000165,0.910,1.289,0.328
7935.243000000165,0.910,1.289,0.328
7937.745000000165,0.404,-0.010,0.023
7940.248000000165,0.672,-0.096,0.159
7942.7500000001655,1.464,0.073,-0.379
7945.253000000165,1.348,-0.685,-0.133
7947.755000000166,1.498,-1.024,0.047
7950.258000000165,1.905,0.555,-0.453
7952.760000000166,0.704,-0.109,0.480
7955.263000000165,0.565,0.414,0.293
7957.765000000166,0.867,0.456,0.023
7960.267000000166,1.016,-0.158,0.109
7962.770000000166,1.413,-0.118,-0.172
7965.272000000166,1.445,-0.200,0.007
7967.775000000166,1.051,-0.164,0.140
7970.2770000001665,0.899,0.772,0.519
7972.780000000166,0.925,0.459,-0.012
7975.282000000167,0.797,-0.392,0.124
7977.785000000166,1.007,0.257,0.323
7980.287000000167,1.007,0.257,0.323
7982.789000000167,0.992,-0.372,-0.383
7985.292000000167,1.062,-0.969,-0.044
7987.794000000167,1.190,-0.281,0.297
7990.297000000167,1.288,0.051,0.024
7992.799000000167,0.847,0.096,0.188
7995.302000000167,0.853,1.210,0.438
7997.804000000167,0.301,0.097,0.097
8000.306000000168,0.680,-0.108,0.094
8002.8090000001675,1.547,0.077,-0.359
8005.311000000168,1.387,-0.627,-0.091
8007.814000000168,1.507,-1.062,-0.016
8010.316000000168,1.827,0.642,-0.272
8012.819000000168,0.683,-0.098,0.538
8015.321000000168,0.597,0.319,0.211
8017.824000000168,0.948,0.363,0.124
8020.326000000168,1.027,-0.270,0.043
8022.828000000169,1.027,-0.270,0.043
8025.331000000168,1.329,-0.166,-0.082
8027.833000000169,1.421,-0.038,0.124
8030.3360000001685,0.996,-0.134,0.121
8032.838000000169,0.840,0.624,0.452
8035.341000000169,0.946,0.670,0.074
8037.843000000169,0.757,-0.431,0.199
8040.346000000169,0.969,0.262,0.311
8042.848000000169,1.050,-0.332,-0.348
8045.3500000001695,1.081,-1.015,-0.118
8047.853000000169,1.201,-0.398,0.280
8050.35500000017,1.387,0.051,-0.024
8052.858000000169,0.847,0.035,0.378
8055.36000000017,0.826,1.172,0.331
8057.863000000169,0.355,0.215,0.003
8060.365000000169,0.695,-0.182,0.173
8062.868000000169,0.695,-0.182,0.173
8065.370000000168,1.548,0.170,-0.356
8067.872000000169,1.422,-0.438,-0.066
8070.375000000168,1.512,-1.025,0.022
8072.877000000169,1.732,0.672,-0.219
8075.380000000168,0.702,-0.080,0.347
8077.882000000169,0.609,0.234,0.280
8080.3850000001685,0.987,0.331,-0.079
8082.887000000168,1.023,-0.329,-0.032
8085.390000000168,1.269,-0.275,0.039
8087.892000000168,1.336,0.030,0.168
8090.394000000168,0.944,-0.020,0.163
8092.897000000167,0.780,0.547,0.412
8095.399000000167,1.000,0.844,0.202
8097.9020000001665,0.719,-0.463,0.086
8100.404000000167,0.891,0.194,0.345
8102.907000000167,1.063,-0.265,-0.403
8105.409000000167,1.128,-0.978,-0.098
8107.911000000167,1.128,-0.978,-0.098
8110.414000000167,1.246,-0.601,0.274
8112.9160000001675,1.535,0.087,-0.102
8115.419000000167,0.862,0.066,0.319
8117.921000000168,0.762,1.188,0.384
8120.424000000167,0.329,0.277,0.101
8122.926000000168,0.687,-0.310,0.148
8125.429000000167,1.574,0.211,-0.379
8127.931000000168,1.445,-0.360,-0.077
8130.433000000168,1.476,-0.962,-0.030
8132.936000000168,1.663,0.688,-0.078
8135.438000000168,0.730,-0.106,0.327
8137.941000000168,0.672,0.117,0.265
8140.4430000001685,1.007,0.309,0.022
8142.946000000168,1.048,-0.268,-0.108
8145.448000000169,1.253,-0.246,0.053
8147.951000000168,1.253,-0.246,0.053
8150.453000000169,1.328,-0.062,0.199
8152.955000000169,0.923,-0.008,0.191
8155.458000000169,0.750,0.480,0.340
8157.960000000169,0.992,0.984,0.293
8160.463000000169,0.652,-0.442,0.132
8162.965000000169,0.898,0.110,0.277
8165.468000000169,1.090,-0.200,-0.313
8167.970000000169,1.128,-0.973,-0.126
8170.473000000169,1.284,-0.700,0.226
8172.9750000001695,1.632,0.070,-0.169
8175.47700000017,0.829,0.066,0.461
8177.98000000017,0.741,1.105,0.343
8180.48200000017,0.413,0.303,-0.008
8182.98500000017,0.769,-0.247,0.184
8185.48700000017,1.607,0.206,-0.316
8187.99000000017,1.487,-0.367,-0.028
8190.49200000017,1.399,-0.938,-0.009
8192.99400000017,1.399,-0.938,-0.009
8195.49700000017,1.507,0.758,0.069
8197.99900000017,0.726,0.079,0.163
8200.502000000171,0.690,0.034,0.190
8203.004000000172,1.131,0.211,-0.024
8205.507000000172,1.082,-0.274,-0.149
8208.009000000173,1.195,-0.320,0.128
8210.512000000173,1.269,-0.070,0.145
8213.014000000174,0.926,-0.048,0.230
8215.516000000174,0.757,0.398,0.273
8218.019000000175,0.965,1.034,0.452
8220.521000000175,0.581,-0.304,0.105
8223.024000000176,0.773,0.077,0.249
8225.526000000176,1.118,-0.143,-0.298
8228.029000000177,1.190,-0.957,-0.114
8230.531000000177,1.336,-0.858,0.202
8233.034000000178,1.715,0.139,-0.282
8235.536000000178,1.715,0.139,-0.282
8238.038000000179,0.866,0.147,0.548
8240.54100000018,0.672,0.922,0.226
8243.04300000018,0.371,0.335,0.043
8245.54600000018,0.757,-0.281,0.160
8248.04800000018,1.534,0.277,-0.325
8250.551000000181,1.461,-0.340,-0.002
8253.053000000182,1.384,-0.824,-0.056
8255.556000000182,1.472,0.774,0.194
8258.058000000183,0.737,0.030,0.181
8260.560000000183,0.703,-0.033,0.351
8263.063000000184,1.152,0.222,0.042
8265.565000000184,1.097,-0.236,-0.228
8268.068000000185,1.165,-0.441,0.151
8270.570000000185,1.240,-0.098,0.210
8273.073000000186,0.918,0.047,0.199
8275.575000000186,0.741,0.438,0.242
8278.077000000187,0.741,0.438,0.242
8280.580000000187,0.975,1.090,0.288
8283.082000000188,0.584,-0.399,-0.010
8285.585000000188,0.735,0.065,0.215
8288.087000000189,1.202,0.014,-0.368
8290.59000000019,1.215,-0.926,-0.166
8293.09200000019,1.394,-1.021,0.108
8295.59500000019,1.855,0.210,-0.368
8298.09700000019,0.798,0.128,0.581
8300.599000000191,0.581,0.784,0.194
8303.102000000192,0.589,0.415,-0.039
8305.604000000192,0.907,-0.174,0.237
8308.107000000193,1.476,0.124,-0.332
8310.609000000193,1.472,-0.200,0.001
8313.112000000194,1.215,-0.531,-0.001
8315.614000000194,1.176,0.848,0.482
8318.117000000195,1.176,0.848,0.482
8320.619000000195,0.876,0.251,-0.071
8323.121000000196,0.797,-0.364,0.181
8325.624000000196,1.115,0.256,0.265
8328.126000000197,1.059,-0.174,-0.403
8330.629000000197,1.097,-0.752,0.034
8333.131000000198,1.194,-0.310,0.262
8335.634000000198,1.034,0.019,0.154
8338.136000000199,0.776,0.297,0.112
8340.6390000002,0.882,1.280,0.523
8343.1410000002,0.383,-0.140,0.109
8345.6430000002,0.594,-0.096,0.087
8348.1460000002,1.391,0.086,-0.305
8350.648000000201,1.306,-0.695,-0.102
8353.151000000202,1.515,-1.130,-0.016
8355.653000000202,1.874,0.507,-0.431
8358.156000000203,0.725,-0.021,0.590
8360.658000000203,0.725,-0.021,0.590
8363.161000000204,0.562,0.430,0.248
8365.663000000204,0.831,0.405,-0.056
8368.165000000205,1.043,-0.066,0.180
8370.668000000205,1.399,-0.049,-0.166
8373.170000000206,1.415,-0.270,0.081
8375.673000000206,1.086,-0.299,0.112
8378.175000000207,0.967,0.801,0.543
8380.678000000207,0.907,0.465,-0.069
8383.180000000208,0.812,-0.441,0.076
8385.682000000208,1.047,0.296,0.304
8388.185000000209,1.034,-0.247,-0.400
8390.687000000209,1.100,-0.867,-0.022
8393.19000000021,1.184,-0.383,0.269
8395.69200000021,1.209,0.034,0.032
8398.19500000021,0.800,0.168,0.249
8400.697000000211,0.819,1.232,0.476
8403.200000000212,0.819,1.232,0.476
8405.702000000212,0.397,-0.071,0.012
8408.204000000213,0.621,-0.055,0.117
8410.707000000213,1.438,0.180,-0.335
8413.209000000214,1.375,-0.702,-0.181
8415.712000000214,1.532,-1.173,-0.028
8418.214000000215,1.855,0.574,-0.344
8420.717000000215,0.688,-0.001,0.398
8423.219000000216,0.568,0.339,0.290
8425.722000000216,0.921,0.425,-0.096
8428.224000000217,1.059,-0.141,0.148
8430.726000000217,1.386,-0.047,-0.176
8433.229000000218,1.384,-0.160,0.093
8435.731000000218,1.070,-0.211,0.134
8438.234000000219,0.914,0.774,0.490
8440.736000000219,0.934,0.472,-0.009
8443.23900000022,0.726,-0.406,0.188
8445.74100000022,0.726,-0.406,0.188
8448.24400000022,0.991,0.334,0.441
8450.746000000221,1.021,-0.327,-0.385
8453.248000000222,1.105,-1.031,-0.102
8455.751000000222,1.209,-0.508,0.293
8458.253000000223,1.312,0.055,0.055
8460.756000000223,0.867,0.233,0.351
8463.258000000224,0.899,1.160,0.272
8465.761000000224,0.390,0.065,0.059
8468.263000000225,0.670,-0.060,0.190
8470.765000000225,1.480,0.186,-0.397
8473.268000000226,1.382,-0.563,-0.080
8475.770000000226,1.520,-1.002,-0.004
8478.273000000227,1.732,0.624,-0.188
8480.775000000227,0.664,-0.041,0.318
8483.278000000228,0.621,0.253,0.280
8485.780000000228,0.621,0.253,0.280
8488.283000000229,1.054,0.383,0.015
8490.785000000229,1.069,-0.235,-0.022
8493.28700000023,1.279,-0.267,-0.018
8495.79000000023,1.355,-0.181,0.112
8498.29200000023,0.956,-0.008,0.180
8500.795000000231,0.805,0.642,0.407
8503.297000000231,0.984,0.679,0.139
8505.800000000232,0.734,-0.453,0.094
8508.302000000233,0.887,0.265,0.371
8510.805000000233,1.039,-0.218,-0.337
8513.307000000234,1.124,-1.070,-0.145
8515.809000000234,1.259,-0.566,0.293
8518.312000000235,1.470,0.029,-0.059
8520.814000000235,0.876,0.095,0.367
8523.317000000236,0.749,1.170,0.312
8525.819000000236,0.300,0.321,0.148
8528.322000000237,0.672,-0.203,0.131
8530.824000000237,0.672,-0.203,0.131
8533.327000000238,1.550,0.094,-0.382
8535.829000000238,1.444,-0.504,-0.033
8538.331000000238,1.547,-0.930,0.055
8540.834000000239,1.687,0.732,-0.165
8543.33600000024,0.699,-0.135,0.359
8545.83900000024,0.680,0.184,0.240
8548.34100000024,1.059,0.398,0.029
8550.844000000241,1.065,-0.213,-0.082
8553.346000000241,1.242,-0.282,-0.008
8555.848000000242,1.306,-0.138,0.115
8558.351000000242,0.909,-0.062,0.230
8560.853000000243,0.787,0.570,0.335
8563.356000000244,0.944,0.840,0.256
8565.858000000244,0.681,-0.390,0.076
8568.361000000245,0.871,0.220,0.290
8570.863000000245,0.871,0.220,0.290
8573.366000000246,1.090,-0.238,-0.337
8575.868000000246,1.171,-1.039,-0.152
8578.370000000246,1.306,-0.622,0.193
8580.873000000247,1.569,0.063,-0.169
8583.375000000247,0.845,-0.008,0.562
8585.878000000248,0.746,1.014,0.312
8588.380000000248,0.355,0.370,0.069
8590.883000000249,0.745,-0.165,0.163
8593.38500000025,1.547,0.167,-0.352
8595.88800000025,1.487,-0.427,-0.010
8598.39000000025,1.451,-0.827,-0.028
8600.89200000025,1.514,0.812,0.087
8603.395000000251,0.732,-0.044,0.156
8605.897000000252,0.714,0.168,0.242
8608.400000000252,1.084,0.290,0.068
8610.902000000253,1.062,-0.320,-0.194
8613.405000000253,1.062,-0.320,-0.194
8615.907000000254,1.162,-0.384,0.101
8618.410000000255,1.191,-0.039,0.202
8620.912000000255,0.851,0.029,0.219
8623.414000000255,0.734,0.351,0.191
8625.917000000256,0.962,1.016,0.483
8628.419000000256,0.647,-0.298,0.045
8630.922000000257,0.773,0.199,0.211
8633.424000000257,1.171,-0.160,-0.309
8635.927000000258,1.226,-1.031,-0.219
8638.429000000258,1.344,-0.778,0.160
8640.932000000259,1.699,0.142,-0.319
8643.43400000026,0.829,0.047,0.537
8645.93600000026,0.673,0.992,0.253
8648.43900000026,0.394,0.331,-0.016
8650.94100000026,0.767,-0.260,0.183
8653.444000000261,1.555,0.187,-0.341
8655.946000000262,1.555,0.187,-0.341
8658.449000000262,1.461,-0.340,0.040
8660.951000000263,1.409,-0.796,-0.024
8663.453000000263,1.465,0.764,0.140
8665.956000000264,0.753,-0.039,0.194
8668.458000000264,0.734,0.115,0.376
8670.961000000265,1.132,0.289,0.090
8673.463000000265,1.058,-0.379,-0.233
8675.966000000266,1.167,-0.450,0.077
8678.468000000266,1.222,-0.085,0.218
8680.971000000267,0.897,0.001,0.211
8683.473000000267,0.751,0.367,0.188
8685.975000000268,0.944,1.219,0.327
8688.478000000268,0.584,-0.406,-0.078
8690.980000000269,0.774,0.159,0.219
8693.48300000027,1.173,-0.082,-0.335
8695.98500000027,1.222,-0.939,-0.189
8698.48800000027,1.222,-0.939,-0.189
8700.99000000027,1.437,-0.859,0.167
8703.493000000271,1.843,0.159,-0.445
8705.995000000272,0.815,-0.075,0.609
8708.497000000272,0.589,0.938,0.340
8711.000000000273,0.415,0.444,-0.066
8713.502000000273,0.867,-0.310,0.257
8716.005000000274,1.584,0.191,-0.361
8718.507000000274,1.496,-0.294,0.037
8721.010000000275,1.282,-0.633,-0.022
8723.512000000275,1.287,0.862,0.321
8726.015000000276,0.805,0.116,0.059
8728.517000000276,0.790,-0.132,0.336
8731.019000000277,1.112,0.240,0.202
8733.522000000277,0.983,-0.345,-0.377
8736.024000000278,1.102,-0.557,0.152
8738.527000000278,1.194,-0.106,0.269
8741.029000000279,1.194,-0.106,0.269
8743.53200000028,0.972,-0.130,0.137
8746.03400000028,0.771,0.282,0.146
8748.53600000028,0.938,1.312,0.449
8751.03900000028,0.496,-0.272,0.062
8753.541000000281,0.715,0.034,0.168
8756.044000000282,1.280,-0.020,-0.332
8758.546000000282,1.220,-0.882,-0.191
8761.049000000283,1.417,-0.935,0.152
8763.551000000283,1.878,0.281,-0.466
8766.054000000284,0.815,0.038,0.648
8768.556000000284,0.604,0.746,0.204
8771.058000000285,0.551,0.422,-0.040
8773.561000000285,0.897,-0.247,0.238
8776.063000000286,1.547,0.198,-0.348
8778.566000000286,1.509,-0.299,0.055
8781.068000000287,1.316,-0.646,-0.017
8783.571000000287,1.316,-0.646,-0.017
8786.073000000288,1.211,0.863,0.405
8788.576000000288,0.784,0.229,0.094
8791.078000000289,0.780,-0.105,0.344
