t,aX,aY,aZ
0.0,0.308,0.747,0.302
0.021,0.280,0.549,0.374
0.041,0.313,0.428,0.681
0.062,0.060,0.313,0.731
0.083,-0.055,0.121,1.214
0.103,-0.082,-0.027,1.258
0.124,-0.313,-0.154,1.181
0.145,-0.379,-0.417,0.890
0.166,-0.352,-0.505,0.390
0.186,-0.505,-0.582,0.209
0.207,-0.560,-0.401,-0.049
0.228,-0.516,-0.093,-0.033
0.248,-0.692,0.137,-0.077
0.269,-0.720,0.582,0.225
0.29,-0.659,0.703,0.297
0.31,-0.753,0.753,0.275
0.331,-0.753,0.428,0.121
0.352,-0.648,0.148,-0.137
0.372,-0.758,-0.099,-0.225
0.393,-0.807,-0.341,-0.231
0.414,-0.747,-0.242,0.011
0.435,-0.956,-0.148,0.060
0.455,-1.033,0.181,0.549
0.476,-0.989,0.286,0.873
0.497,-1.159,0.341,0.956
0.517,-1.187,0.027,1.148
0.538,-1.093,-0.187,1.176
0.559,-1.214,-0.379,1.170
0.579,-1.280,-0.500,1.154
0.6,-1.236,-0.352,1.104
0.621,-1.588,-0.159,1.060
0.641,-1.769,0.203,0.972
0.662,-1.829,0.330,0.824
0.683,-2.016,0.406,0.753
0.704,-1.956,0.060,0.522
0.724,-1.736,-0.181,0.291
0.745,-1.566,-0.412,0.203
0.766,-1.511,-0.632,0.027
0.786,-1.384,-0.544,-0.016
0.807,-1.703,-0.396,-0.049
0.828,-1.912,-0.137,0.060
0.848,-2.060,-0.027,0.203
0.869,-2.318,0.066,0.203
0.89,-2.340,-0.088,0.330
0.91,-2.192,-0.159,0.363
0.931,-2.054,-0.236,0.341
0.952,-2.010,-0.209,0.368
0.973,-1.873,-0.060,0.461
0.993,-2.054,0.137,0.445
1.014,-2.230,0.374,0.648
1.035,-2.390,0.461,0.813
1.055,-2.571,0.505,0.829
1.076,-2.587,0.357,0.851
1.097,-2.406,0.291,0.769
1.117,-2.098,0.176,0.687
1.138,-1.994,0.110,0.434
1.159,-1.736,0.148,0.258
1.179,-1.763,0.242,0.148
1.2,-1.901,0.330,0.027
1.221,-1.994,0.352,-0.038
1.242,-2.137,0.352,-0.110
1.262,-2.197,0.236,-0.302
1.283,-2.010,0.203,-0.538
1.304,-1.736,0.181,-0.687
1.324,-1.670,0.291,-1.022
1.345,-1.351,0.417,-1.159
1.366,-1.258,0.670,-1.269
1.386,-1.346,0.978,-1.296
1.407,-1.307,1.093,-1.318
1.428,-1.335,1.241,-1.384
1.448,-1.390,1.214,-1.555
1.469,-1.170,1.181,-1.708
1.49,-0.906,1.121,-1.807
1.511,-0.901,1.132,-1.934
1.531,-0.599,1.159,-1.912
1.552,-0.522,1.340,-1.923
1.573,-0.626,1.527,-1.791
1.593,-0.538,1.577,-1.642
1.614,-0.527,1.703,-1.615
1.635,-0.615,1.659,-1.472
1.655,-0.368,1.609,-1.335
1.676,-0.176,1.588,-1.307
1.697,-0.231,1.588,-1.077
1.717,0.044,1.599,-0.846
1.738,0.110,1.774,-0.764
1.759,-0.016,1.862,-0.571
1.78,0.126,1.835,-0.500
1.8,0.220,1.763,-0.505
1.821,0.110,1.483,-0.593
1.842,0.412,1.362,-0.637
1.862,0.582,1.181,-0.681
1.883,0.489,1.121,-0.742
1.904,0.703,1.082,-0.703
1.924,0.703,1.291,-0.714
1.945,0.566,1.368,-0.731
1.966,0.637,1.335,-0.731
1.986,0.643,1.302,-0.780
2.007,0.511,1.066,-0.901
2.028,0.670,0.961,-0.868
2.049,0.802,0.879,-0.906
2.069,0.720,0.961,-0.797
2.09,0.928,0.945,-0.571
2.111,1.027,1.302,-0.489
2.131,0.956,1.439,-0.335
2.152,1.055,1.434,-0.165
2.173,1.071,1.406,-0.143
2.193,0.983,1.159,-0.126
2.214,0.989,1.066,-0.027
2.235,0.967,0.884,-0.022
2.255,0.879,0.818,-0.055
2.276,0.835,0.780,-0.016
2.297,0.824,0.917,-0.055
2.318,0.747,0.923,-0.220
2.338,0.725,0.923,-0.242
2.359,0.720,0.797,-0.313
2.38,0.643,0.582,-0.434
2.4,0.560,0.533,-0.357
2.421,0.511,0.417,-0.357
2.442,0.401,0.500,-0.341
2.462,0.247,0.500,-0.198
2.483,0.148,0.764,-0.170
2.504,0.033,0.879,-0.115
2.524,-0.154,0.901,0.038
2.545,-0.214,0.813,0.060
2.566,-0.324,0.593,0.093
2.587,-0.341,0.538,0.203
2.607,-0.324,0.341,0.231
2.628,-0.423,0.286,0.192
2.649,-0.802,0.258,0.192
2.669,-1.104,0.374,0.154
2.69,-1.296,0.396,0.038
2.711,-1.351,0.401,0.066
2.731,-0.884,0.374,0.055
2.752,-0.840,0.313,0.176
2.773,-0.214,0.275,0.313
2.793,0.005,0.330,0.396
2.814,-0.049,0.467,0.472
2.835,-0.577,0.483,0.483
2.856,-1.016,0.676,0.456
2.876,-1.291,0.758,0.319
2.897,-1.511,0.753,0.275
2.918,-1.121,0.676,0.236
2.938,-1.110,0.588,0.198
2.959,-0.423,0.538,0.225
2.98,0.005,0.566,0.242
3.0,0.011,0.720,0.198
3.021,-0.231,0.753,0.154
3.042,-0.511,1.027,0.093
3.062,-0.764,1.192,-0.082
3.083,-0.983,1.192,-0.170
3.104,-0.588,1.247,-0.242
3.125,-0.560,1.236,-0.374
3.145,0.126,1.198,-0.385
3.166,0.593,1.208,-0.385
3.187,0.610,1.285,-0.445
3.207,0.417,1.269,-0.483
3.228,0.192,1.368,-0.522
3.249,-0.033,1.406,-0.709
3.269,-0.379,1.357,-0.786
3.29,-0.291,1.313,-0.851
3.311,-0.363,1.285,-0.956
3.331,-0.165,1.236,-0.934
3.352,0.060,1.291,-0.895
3.373,0.033,1.390,-0.868
3.394,-0.082,1.395,-0.818
3.414,-0.181,1.505,-0.769
3.435,-0.335,1.527,-0.807
3.456,-0.588,1.500,-0.780
3.476,-0.533,1.445,-0.758
3.497,-0.588,1.406,-0.807
3.518,-0.445,1.362,-0.802
3.538,-0.203,1.417,-0.786
3.559,-0.165,1.511,-0.868
3.58,-0.049,1.538,-0.895
3.6,0.093,1.664,-0.912
3.621,0.093,1.708,-1.082
3.642,-0.005,1.697,-1.115
3.663,-0.005,1.664,-1.137
3.683,-0.060,1.631,-1.176
3.704,-0.209,1.593,-1.099
3.725,-0.170,1.626,-1.011
3.745,-0.209,1.703,-0.978
3.766,-0.319,1.714,-0.972
3.787,-0.330,1.780,-0.983
3.807,-0.379,1.780,-1.181
3.828,-0.643,1.741,-1.247
3.849,-0.692,1.653,-1.307
3.869,-0.764,1.637,-1.225
3.89,-0.901,1.599,-1.055
3.911,-0.769,1.653,-0.797
3.932,-0.764,1.791,-0.374
3.952,-0.780,1.813,-0.181
3.973,-0.742,1.928,0.044
3.994,-0.769,1.967,0.093
4.014,-1.071,1.961,0.104
4.035,-1.093,1.862,0.110
4.056,-1.159,1.835,0.187
4.076,-1.170,1.785,0.319
4.097,-0.917,1.752,0.588
4.118,-0.846,1.807,0.989
4.138,-0.797,1.807,1.121
4.159,-0.742,1.780,1.318
4.18,-0.758,1.785,1.214
4.201,-1.148,1.752,1.077
4.221,-1.274,1.604,0.846
4.242,-1.384,1.571,0.500
4.263,-1.736,1.511,0.379
4.283,-1.708,1.401,0.297
4.304,-1.752,1.423,0.264
4.325,-1.912,1.379,0.225
4.345,-1.890,1.291,0.236
4.366,-1.939,1.296,0.060
4.387,-2.258,1.247,-0.055
4.407,-2.263,1.110,-0.187
4.428,-2.318,1.110,-0.313
4.449,-2.494,1.049,-0.368
4.47,-2.401,0.923,-0.242
4.49,-2.406,0.917,-0.099
4.511,-2.741,0.851,-0.099
4.532,-2.862,0.637,0.071
4.552,-2.999,0.538,0.088
4.573,-3.494,0.434,0.027
4.594,-3.494,0.214,0.071
4.614,-3.532,0.220,0.060
4.635,-3.461,0.176,0.000
4.656,-3.257,0.159,0.104
4.676,-3.192,0.247,0.082
4.697,-3.642,0.253,0.011
4.718,-3.856,0.220,-0.033
4.739,-4.043,0.225,-0.247
4.759,-4.169,0.187,-0.363
4.78,-3.658,0.093,-0.533
4.801,-3.323,0.143,-0.692
4.821,-2.538,0.132,-0.786
4.842,-2.175,0.192,-0.775
4.863,-2.000,0.231,-0.818
4.883,-2.538,0.231,-0.884
4.904,-2.939,0.104,-0.945
4.925,-3.208,0.016,-1.126
4.945,-3.400,-0.071,-1.198
4.966,-2.966,-0.159,-1.318
4.987,-2.598,-0.088,-1.346
5.008,-1.593,-0.055,-1.362
5.028,-1.099,0.176,-1.126
5.049,-0.753,0.352,-0.851
5.07,-1.077,0.434,-0.780
5.09,-1.472,0.478,-0.406
5.111,-1.741,0.472,-0.214
5.132,-2.027,0.428,-0.181
5.152,-1.692,0.396,-0.093
5.173,-1.318,0.472,-0.170
5.194,-0.434,0.500,-0.198
5.214,-0.016,0.599,-0.242
5.235,0.324,0.626,-0.236
5.256,-0.038,0.626,-0.253
5.277,-0.434,0.500,-0.154
5.297,-0.709,0.450,-0.137
5.318,-1.236,0.385,-0.148
5.339,-1.203,0.428,-0.231
5.359,-1.049,0.588,-0.423
5.38,-0.610,0.692,-0.500
5.401,-0.330,0.923,-0.709
5.421,-0.022,1.027,-0.758
5.442,-0.209,1.077,-0.813
5.463,-0.461,0.950,-0.659
5.483,-0.615,0.884,-0.434
5.504,-1.000,0.802,-0.396
5.525,-0.945,0.714,-0.126
5.546,-0.742,0.758,0.038
5.566,-0.291,0.802,0.055
5.587,0.027,0.873,0.225
5.608,0.412,0.906,0.374
5.628,0.379,0.934,0.396
5.649,0.291,0.791,0.571
5.67,0.258,0.736,0.698
5.69,-0.071,0.665,0.692
5.711,-0.093,0.593,0.807
5.732,0.038,0.681,0.884
5.752,0.231,0.780,0.862
5.773,0.385,0.906,0.939
5.794,0.665,1.005,1.022
5.815,0.610,1.066,1.005
5.835,0.494,0.983,1.077
5.856,0.472,0.967,1.137
5.877,0.220,0.945,1.104
5.897,0.225,0.950,1.121
5.918,0.406,1.060,1.154
5.939,0.676,1.192,1.099
5.959,0.807,1.362,1.143
5.98,1.071,1.450,1.214
6.001,0.879,1.516,1.181
6.021,0.648,1.401,1.241
6.042,0.439,1.329,1.219
6.063,0.033,1.214,1.154
6.084,-0.055,1.088,0.989
6.104,0.027,1.104,0.791
6.125,0.308,1.143,0.670
6.146,0.423,1.252,0.390
6.166,0.698,1.335,0.176
6.187,0.648,1.423,0.044
6.208,0.494,1.456,-0.225
6.228,0.368,1.467,-0.412
6.249,0.077,1.461,-0.527
6.27,-0.033,1.467,-0.758
6.29,0.033,1.522,-0.906
6.311,0.187,1.599,-0.994
6.332,0.220,1.719,-1.115
6.353,0.439,1.780,-1.137
6.373,0.401,1.873,-1.176
6.394,0.275,1.851,-1.154
6.415,0.225,1.824,-1.104
6.435,0.038,1.780,-1.115
6.456,-0.077,1.692,-1.154
6.477,0.049,1.675,-1.225
6.497,0.220,1.714,-1.296
6.518,0.192,1.824,-1.483
6.539,0.374,1.862,-1.582
6.559,0.220,2.000,-1.664
6.58,0.022,1.989,-1.730
6.601,-0.121,1.939,-1.719
6.622,-0.187,1.862,-1.736
6.642,-0.291,1.664,-1.747
6.663,-0.071,1.609,-1.747
6.684,-0.011,1.577,-1.796
6.704,-0.110,1.588,-1.978
6.725,0.088,1.599,-2.115
6.746,0.379,1.703,-2.203
6.766,0.368,1.637,-2.395
6.787,1.016,1.571,-2.395
6.808,1.412,1.461,-2.417
6.828,1.362,1.307,-2.357
6.849,1.428,1.236,-2.181
6.87,1.022,1.302,-2.142
6.891,0.764,1.428,-2.005
6.911,0.461,1.428,-1.807
6.932,0.324,1.637,-1.747
6.953,0.170,1.659,-1.593
6.973,0.599,1.604,-1.494
6.994,1.099,1.637,-1.500
7.015,1.088,1.593,-1.692
7.035,1.505,1.533,-1.604
7.056,1.329,1.544,-1.615
7.077,1.137,1.467,-1.192
7.097,0.720,1.395,-0.445
7.118,0.467,1.346,-0.066
7.139,0.291,1.187,1.066
7.16,0.615,1.099,1.923
7.18,1.088,0.983,2.324
7.201,1.093,0.807,2.681
7.222,1.489,0.736,2.807
7.242,1.406,0.703,2.785
7.263,1.280,0.731,2.752
7.284,0.813,0.709,2.983
7.304,0.319,0.950,3.076
7.325,0.099,1.115,3.263
7.346,-0.231,1.148,3.334
7.366,-0.242,1.247,3.307
7.387,-0.308,1.115,2.818
7.408,-0.231,1.082,2.296
7.429,-0.286,0.862,1.906
7.449,-0.368,0.659,1.143
7.47,-0.687,0.604,0.901
7.491,-0.950,0.566,0.758
7.511,-1.115,0.593,0.862
7.532,-1.302,0.599,1.011
7.553,-1.269,0.659,1.088
7.573,-1.351,0.571,1.066
7.594,-1.203,0.538,0.945
7.615,-0.983,0.357,0.829
7.635,-1.005,0.220,0.703
7.656,-0.868,0.159,0.873
7.677,-0.857,0.187,0.989
7.698,-0.939,0.247,1.566
7.718,-1.115,0.258,2.060
7.739,-1.143,0.352,2.411
7.76,-1.258,0.352,2.862
7.78,-1.236,0.346,2.988
7.801,-1.099,0.319,3.027
7.822,-1.159,0.269,2.664
7.842,-1.148,0.236,2.307
7.863,-1.126,0.247,1.994
7.884,-1.236,0.253,1.324
7.904,-1.346,0.242,0.917
7.925,-1.291,0.264,0.599
7.946,-1.412,0.264,-0.049
7.967,-1.379,0.242,-0.456
7.987,-1.280,0.319,-0.775
8.008,-1.368,0.406,-1.373
8.029,-1.494,0.412,-1.604
8.049,-1.588,0.533,-1.780
8.07,-1.763,0.582,-1.890
8.091,-1.967,0.560,-1.818
8.111,-1.791,0.544,-1.741
8.132,-1.868,0.533,-1.747
8.153,-1.582,0.494,-1.769
8.173,-1.263,0.560,-1.791
8.194,-1.302,0.643,-1.824
8.215,-1.313,0.626,-1.681
8.236,-1.379,0.692,-1.505
8.256,-1.538,0.687,-1.126
8.277,-1.774,0.632,-0.862
8.298,-1.719,0.560,-0.604
8.318,-1.829,0.500,-0.445
8.339,-1.697,0.439,-0.401
8.36,-1.406,0.461,-0.368
8.38,-1.439,0.571,-0.549
8.401,-1.368,0.566,-0.610
8.422,-1.302,0.758,-0.692
8.442,-1.401,0.912,-0.895
8.463,-1.467,0.928,-1.016
8.484,-1.230,1.088,-1.126
8.505,-1.236,1.165,-1.423
8.525,-0.906,1.176,-1.566
8.546,-0.593,1.269,-1.730
8.567,-0.555,1.335,-1.945
8.587,-0.582,1.340,-2.027
8.608,-0.665,1.445,-2.093
8.629,-0.764,1.500,-2.247
8.649,-0.862,1.511,-2.340
8.67,-0.571,1.555,-2.444
8.691,-0.494,1.593,-2.681
8.711,-0.038,1.577,-2.769
8.732,0.335,1.653,-2.867
8.753,0.434,1.763,-2.867
8.774,0.126,1.791,-2.785
8.794,-0.308,1.945,-2.582
8.815,-0.538,2.049,-2.192
8.836,-0.857,2.065,-1.983
8.856,-0.368,2.071,-1.615
8.877,-0.165,2.060,-1.285
8.898,0.780,2.027,-1.143
8.918,1.302,1.983,-0.890
8.939,1.472,2.016,-0.582
8.96,0.972,1.994,-0.423
8.98,0.390,2.038,-0.066
9.001,0.060,2.071,0.220
9.022,-0.549,2.060,0.231
9.043,-0.269,1.989,0.176
9.063,-0.159,1.945,-0.401
9.084,0.511,1.890,-0.676
9.105,1.027,1.824,-1.093
9.125,1.203,1.945,-1.060
9.146,0.851,1.956,-0.901
9.167,0.396,2.054,-0.126
9.187,0.088,2.175,0.956
9.208,-0.538,2.186,1.285
9.229,-0.302,2.120,2.164
9.249,-0.198,2.082,2.433
9.27,0.352,2.010,2.428
9.291,0.829,1.851,2.411
9.312,1.005,1.873,2.527
9.332,0.736,1.829,2.554
9.353,0.434,1.741,3.164
9.374,0.203,1.719,3.609
9.394,-0.472,1.642,3.642
9.415,-0.549,1.412,3.680
9.436,-0.626,1.362,3.060
9.456,-0.709,1.285,2.796
9.477,-0.511,1.208,1.846
9.498,-0.461,1.329,1.022
9.518,-0.731,1.335,0.780
9.539,-0.862,1.318,0.555
9.56,-1.005,1.313,0.610
9.581,-1.423,1.247,0.582
9.601,-1.302,1.000,0.736
9.622,-1.263,0.912,0.610
9.643,-1.104,0.818,0.516
9.663,-0.797,0.703,0.412
9.684,-0.654,0.703,0.577
9.705,-0.720,0.665,0.577
9.725,-0.670,0.544,1.302
9.746,-0.670,0.439,1.972
9.767,-0.786,0.324,2.126
9.787,-0.659,0.082,2.670
9.808,-0.577,-0.011,2.747
9.829,-0.560,-0.099,2.741
9.85,-0.494,-0.099,2.587
9.87,-0.472,-0.027,2.340
9.891,-0.687,-0.005,2.258
9.912,-0.720,0.016,1.917
9.932,-0.753,-0.016,1.533
9.953,-0.709,-0.071,1.417
9.974,-0.478,-0.192,0.906
9.994,-0.286,-0.209,0.439
10.015,-0.088,-0.258,0.286
10.036,-0.044,-0.181,-0.165
10.056,0.011,-0.077,-0.445
10.077,-0.269,-0.016,-0.549
10.098,-0.379,0.077,-0.681
10.119,-0.412,0.093,-0.709
10.139,-0.461,0.055,-0.725
10.16,-0.346,-0.082,-0.687
10.181,-0.192,-0.159,-0.731
10.201,-0.077,-0.236,-0.769
10.222,0.000,-0.247,-0.950
10.243,0.099,-0.159,-1.121
10.263,0.005,-0.093,-1.203
10.284,-0.005,0.022,-1.241
10.305,0.049,0.082,-1.159
10.325,-0.033,0.121,-1.159
10.346,-0.016,0.055,-0.928
10.367,0.055,0.049,-0.731
10.388,-0.049,0.027,-0.698
10.408,-0.071,0.049,-0.566
10.429,-0.027,0.154,-0.544
10.45,-0.137,0.242,-0.588
10.47,-0.115,0.335,-0.659
10.491,-0.011,0.374,-0.709
10.512,0.016,0.390,-0.786
10.532,0.126,0.308,-0.840
10.553,0.319,0.302,-0.928
10.574,0.428,0.302,-1.005
10.594,0.522,0.352,-1.198
10.615,0.692,0.483,-1.335
10.636,0.566,0.604,-1.445
10.657,0.478,0.703,-1.615
10.677,0.494,0.769,-1.763
10.698,0.352,0.813,-1.857
10.719,0.401,0.780,-2.098
10.739,0.593,0.813,-2.269
10.76,0.714,0.851,-2.390
10.781,0.807,0.934,-2.488
10.801,1.000,1.033,-2.401
10.822,0.807,1.159,-2.422
10.843,0.681,1.241,-2.203
10.863,0.637,1.307,-1.983
10.884,0.379,1.340,-1.950
10.905,0.363,1.335,-1.763
10.926,0.494,1.384,-1.675
10.946,0.582,1.434,-1.697
10.967,0.659,1.560,-1.708
10.988,0.862,1.681,-1.725
11.008,0.758,1.802,-1.769
11.029,0.709,1.912,-1.945
11.05,0.731,1.972,-2.313
11.07,0.599,2.038,-2.494
11.091,0.582,2.060,-2.966
11.112,0.698,2.104,-2.983
11.132,0.593,2.175,-2.999
11.153,0.500,2.274,-2.417
11.174,0.494,2.346,-1.681
11.195,0.280,2.477,-1.390
11.215,0.187,2.593,-0.522
11.236,0.225,2.648,-0.093
11.257,0.203,2.719,0.055
11.277,0.192,2.725,0.280
11.298,0.286,2.719,0.615
11.319,0.198,2.725,0.736
11.339,0.077,2.752,1.329
11.36,0.022,2.780,1.648
11.381,-0.148,2.873,1.758
11.401,-0.209,2.961,1.478
11.422,-0.121,2.988,0.989
11.443,0.011,3.054,0.720
11.464,0.016,3.032,-0.066
11.484,0.165,2.994,-0.363
11.505,0.110,2.972,-0.522
11.526,-0.022,2.900,-0.483
11.546,-0.071,2.862,-0.319
11.567,-0.121,2.889,-0.253
11.588,-0.159,2.867,-0.434
11.608,0.055,2.812,-0.703
11.629,0.253,2.807,-0.901
11.65,0.236,2.670,-1.318
11.67,0.385,2.593,-1.225
11.691,0.275,2.527,-1.203
11.712,0.126,2.411,-0.736
11.733,0.104,2.340,-0.214
11.753,0.115,2.313,0.027
11.774,0.060,2.203,0.412
11.795,0.346,2.115,0.764
11.815,0.538,1.994,0.879
11.836,0.483,1.769,1.252
11.857,0.643,1.653,1.697
11.877,0.555,1.483,1.884
11.898,0.390,1.280,2.109
11.919,0.401,1.181,2.043
11.939,0.406,1.088,1.912
11.96,0.291,0.917,1.027
11.981,0.505,0.824,0.352
12.002,0.566,0.714,-0.121
12.022,0.434,0.555,-0.906
12.043,0.456,0.472,-0.978
12.064,0.286,0.434,-1.044
12.084,0.088,0.352,-0.786
12.105,0.088,0.297,-0.483
12.126,0.093,0.313,-0.335
12.146,-0.055,0.231,-0.187
12.167,0.115,0.198,-0.071
12.188,0.121,0.159,-0.055
12.208,-0.033,0.110,0.055
12.229,-0.049,0.088,0.313
12.25,-0.225,0.115,0.478
12.271,-0.406,0.093,0.961
12.291,-0.472,0.088,1.313
12.312,-0.522,-0.016,1.516
12.333,-0.659,-0.165,1.637
12.353,-0.522,-0.209,1.615
12.374,-0.445,-0.308,1.544
12.395,-0.544,-0.368,1.384
12.415,-0.439,-0.385,1.296
12.436,-0.505,-0.379,1.225
12.457,-0.637,-0.406,0.978
12.477,-0.709,-0.417,0.709
12.498,-0.758,-0.445,0.472
12.519,-0.862,-0.467,-0.203
12.54,-0.807,-0.489,-0.610
12.56,-0.742,-0.401,-0.928
12.581,-0.797,-0.313,-1.329
12.602,-0.818,-0.286,-1.412
12.622,-0.906,-0.192,-1.445
12.643,-1.000,-0.198,-1.434
12.664,-1.159,-0.214,-1.450
12.684,-1.165,-0.291,-1.472
12.705,-1.236,-0.390,-1.719
12.726,-1.099,-0.445,-1.829
12.746,-0.884,-0.472,-1.906
12.767,-0.906,-0.423,-1.912
12.788,-0.807,-0.428,-1.769
12.809,-0.807,-0.324,-1.631
12.829,-0.901,-0.280,-1.390
12.85,-1.022,-0.291,-1.219
12.871,-1.022,-0.291,-1.077
12.891,-1.110,-0.308,-1.060
12.912,-1.060,-0.341,-1.088
12.933,-0.901,-0.286,-1.115
12.953,-0.956,-0.181,-1.208
12.974,-0.873,-0.181,-1.115
12.995,-0.758,-0.033,-0.972
13.015,-0.829,0.033,-0.621
13.036,-0.829,0.033,-0.357
13.057,-0.758,0.016,-0.110
13.078,-0.857,-0.060,-0.071
13.098,-0.890,-0.115,-0.170
13.119,-0.840,-0.165,-0.313
13.14,-0.950,-0.143,-0.884
13.16,-1.022,-0.165,-1.187
13.181,-0.967,-0.038,-1.500
13.202,-1.071,0.110,-1.725
13.222,-1.082,0.110,-1.571
13.243,-0.934,0.280,-1.307
13.264,-1.027,0.368,-0.643
13.284,-0.928,0.368,-0.181
13.305,-0.736,0.423,0.341
13.326,-0.802,0.434,0.890
13.347,-0.764,0.396,1.115
13.367,-0.665,0.412,1.340
13.388,-0.764,0.494,1.439
13.409,-0.824,0.483,1.544
13.429,-0.676,0.665,1.697
13.45,-0.758,0.824,1.895
13.471,-0.615,0.835,1.939
13.491,-0.341,0.950,1.956
13.512,-0.390,1.005,1.609
13.533,-0.302,1.000,1.351
13.553,-0.209,1.038,0.967
13.574,-0.313,1.115,0.363
13.595,-0.494,1.121,0.115
13.616,-0.456,1.285,-0.165
13.636,-0.566,1.412,-0.291
13.657,-0.511,1.434,-0.275
13.678,-0.308,1.533,-0.181
13.698,-0.330,1.549,-0.159
13.719,-0.286,1.533,-0.225
13.74,-0.143,1.505,-0.308
13.76,-0.192,1.472,-0.489
13.781,-0.121,1.456,-0.505
13.802,0.126,1.467,-0.390
13.822,0.148,1.478,0.044
13.843,0.335,1.472,0.291
13.864,0.472,1.461,0.857
13.885,0.461,1.406,1.357
13.905,0.297,1.362,1.467
13.926,0.231,1.247,1.653
13.947,0.148,1.176,1.417
13.967,0.049,1.126,1.241
13.988,0.220,1.055,0.901
14.009,0.253,1.027,0.571
14.029,0.445,1.011,0.461
14.05,0.626,0.978,0.483
14.071,0.648,0.961,0.483
14.091,0.494,0.928,0.417
14.112,0.396,0.824,0.319
14.133,0.297,0.758,-0.071
14.154,0.049,0.698,-0.253
14.174,0.137,0.544,-0.516
14.195,0.143,0.527,-0.544
14.216,0.297,0.483,-0.577
14.236,0.560,0.511,-0.093
14.257,0.626,0.538,0.406
14.278,0.588,0.516,0.472
14.298,0.599,0.231,0.786
14.319,0.555,-0.027,0.456
14.34,0.247,-0.203,0.297
14.36,0.302,-0.500,-0.335
14.381,0.286,-0.500,-0.764
14.402,0.352,-0.538,-0.917
14.423,0.643,-0.544,-0.709
14.443,0.725,-0.555,-0.286
14.464,0.742,-0.604,-0.225
14.485,0.818,-0.901,0.187
14.505,0.791,-0.961,0.077
14.526,0.461,-1.038,0.005
14.547,0.483,-0.884,-0.396
14.567,0.445,-0.461,-0.709
14.588,0.401,-0.280,-0.818
14.609,0.698,0.115,-0.709
14.629,0.797,0.286,-0.527
14.65,0.879,0.313,-0.505
14.671,1.077,0.016,-0.500
14.692,1.126,-0.126,-0.950
14.712,0.956,-0.269,-1.071
14.733,1.049,-0.291,-1.862
14.754,1.055,-0.016,-2.466
14.774,1.005,0.104,-2.637
14.795,1.247,0.423,-3.005
14.816,1.340,0.571,-3.115
14.836,1.335,0.593,-3.170
14.857,1.483,0.390,-3.115
14.878,1.511,0.319,-3.060
14.898,1.324,0.236,-3.065
14.919,1.406,0.346,-2.856
14.94,1.417,0.637,-2.521
14.961,1.329,0.807,-2.444
14.981,1.423,1.187,-1.818
15.002,1.467,1.329,-1.291
15.023,1.291,1.373,-1.154
15.043,1.274,1.208,-0.709
15.064,1.241,1.038,-0.527
15.085,1.033,0.912,-0.505
15.105,1.093,0.829,-0.423
15.126,1.126,0.961,-0.313
15.147,1.170,1.033,-0.313
15.167,1.296,1.318,0.000
15.188,1.395,1.483,0.297
15.209,1.340,1.566,0.363
15.23,1.307,1.599,0.571
15.25,1.307,1.615,0.538
15.271,1.110,1.599,0.489
15.292,1.071,1.631,0.341
15.312,1.093,1.703,0.280
15.333,1.038,1.736,0.220
15.354,1.055,1.807,0.286
15.374,1.121,1.846,0.434
15.395,1.016,1.873,0.439
15.416,0.978,1.829,0.676
15.436,1.000,1.796,0.890
15.457,0.775,1.752,0.901
15.478,0.670,1.697,1.115
15.499,0.654,1.719,1.274
15.519,0.434,1.725,1.263
15.54,0.379,1.719,1.417
15.561,0.401,1.681,1.560
15.581,0.269,1.626,1.555
15.602,0.236,1.390,1.637
15.623,0.280,1.269,1.631
15.643,0.088,1.165,1.571
15.664,-0.011,1.082,1.373
15.685,0.005,1.126,1.148
15.705,-0.247,1.181,1.011
15.726,-0.324,1.241,0.709
15.747,-0.269,1.252,0.544
15.768,-0.401,1.252,0.428
15.788,-0.445,1.055,0.302
15.809,-0.374,0.950,0.275
15.83,-0.599,0.868,0.209
15.85,-0.687,0.769,0.192
15.871,-0.643,0.802,0.231
15.892,-0.879,0.862,0.203
15.912,-1.016,0.906,0.286
15.933,-1.033,0.906,0.302
15.954,-1.296,0.895,0.269
15.974,-1.291,0.648,0.148
15.995,-1.126,0.549,-0.016
16.016,-0.851,0.434,-0.104
16.037,-0.621,0.352,-0.286
16.057,-0.264,0.423,-0.324
16.078,-0.253,0.522,-0.368
16.099,-0.379,0.593,-0.324
16.119,-0.456,0.577,-0.280
16.14,-0.895,0.527,-0.302
16.161,-1.038,0.192,-0.439
16.181,-1.044,0.033,-0.725
16.202,-0.901,-0.154,-0.895
16.223,-0.736,-0.187,-1.412
16.243,-0.390,-0.060,-1.681
16.264,-0.132,0.121,-1.835
16.285,-0.143,0.439,-1.890
16.306,-0.110,0.500,-1.730
16.326,-0.445,0.500,-1.681
16.347,-0.632,0.016,-1.494
16.368,-0.709,-0.269,-1.428
16.388,-0.648,-0.681,-1.428
16.409,-0.599,-0.862,-1.571
16.43,-0.308,-0.802,-1.697
16.45,-0.088,-0.599,-1.780
16.471,-0.104,-0.390,-1.967
16.492,0.022,-0.401,-2.038
16.512,-0.110,-0.522,-2.115
16.533,-0.247,-1.000,-2.307
16.554,-0.275,-1.165,-2.439
16.575,-0.406,-1.346,-2.532
16.595,-0.522,-1.044,-2.856
16.616,-0.461,-0.769,-2.983
16.637,-0.434,-0.154,-3.093
16.657,-0.489,0.352,-3.214
16.678,-0.324,0.412,-3.087
16.699,-0.264,0.406,-3.054
16.719,-0.341,-0.121,-2.862
16.74,-0.181,-0.357,-2.604
16.761,-0.187,-0.731,-2.516
16.781,-0.291,-0.764,-2.340
16.802,-0.192,-0.698,-2.115
16.823,-0.187,-0.253,-2.038
16.844,-0.291,0.132,-1.807
16.864,-0.121,0.187,-1.439
16.885,0.005,0.220,-1.296
16.906,-0.077,-0.225,-0.884
16.926,0.137,-0.401,-0.472
16.947,0.126,-0.731,-0.313
16.968,-0.033,-0.736,-0.104
16.988,-0.005,-0.736,-0.016
17.009,-0.066,-0.319,-0.044
17.03,-0.209,0.033,-0.374
17.05,-0.066,0.077,-0.527
17.071,0.022,0.181,-0.665
17.092,-0.104,-0.132,-0.813
17.113,0.077,-0.264,-0.643
17.133,0.082,-0.544,-0.571
17.154,-0.060,-0.626,-0.313
17.175,0.011,-0.676,-0.104
17.195,-0.005,-0.341,-0.038
17.216,-0.148,-0.044,-0.022
17.237,-0.027,-0.022,0.071
17.257,0.000,0.209,0.093
17.278,-0.121,0.154,0.352
17.299,-0.077,0.093,0.676
17.319,-0.121,0.154,0.879
17.34,-0.247,0.335,1.170
17.361,-0.220,0.346,1.187
17.382,-0.159,0.791,1.154
17.402,-0.253,1.066,0.775
17.423,-0.077,1.104,0.527
17.444,0.060,1.285,0.335
17.464,0.000,1.291,0.187
17.485,0.093,1.274,0.302
17.506,0.077,1.428,0.396
17.526,-0.016,1.648,0.621
17.547,-0.099,1.703,0.698
17.568,-0.110,2.010,0.720
17.588,-0.181,2.021,0.450
17.609,-0.104,2.016,0.247
17.63,0.088,1.780,0.077
17.651,0.066,1.505,-0.110
17.671,0.258,1.417,-0.033
17.692,0.401,1.390,0.049
17.713,0.357,1.604,0.302
17.733,0.401,1.664,0.456
17.754,0.472,2.021,0.571
17.775,0.396,2.104,0.527
17.795,0.483,2.115,0.489
17.816,0.637,1.912,0.439
17.837,0.599,1.609,0.341
17.857,0.731,1.500,0.368
17.878,0.862,1.285,0.385
17.899,0.802,1.236,0.352
17.92,0.829,1.219,0.330
17.94,0.939,1.230,0.302
17.961,0.857,1.099,0.060
17.982,0.972,1.049,-0.093
18.002,1.170,0.731,-0.220
18.023,1.121,0.472,-0.516
18.044,1.280,0.368,-0.599
18.064,1.461,0.319,-0.659
18.085,1.395,0.461,-0.720
18.106,1.428,0.489,-0.654
18.126,1.494,0.753,-0.555
18.147,1.406,0.818,-0.450
18.168,1.357,0.818,-0.379
18.189,1.456,0.626,-0.302
18.209,1.351,0.412,-0.434
18.23,1.417,0.297,-0.544
18.251,1.604,0.253,-0.681
18.271,1.522,0.560,-0.906
18.292,1.588,0.632,-0.906
18.313,1.719,1.126,-0.824
18.333,1.626,1.165,-0.560
18.354,1.604,1.137,-0.379
18.375,1.670,0.593,-0.192
18.395,1.544,0.077,-0.247
18.416,1.445,-0.159,-0.363
18.437,1.489,-0.494,-0.582
18.458,1.373,-0.472,-0.956
18.478,1.324,-0.505,-1.049
18.499,1.428,-0.417,-1.110
18.52,1.335,-0.544,-1.033
18.54,1.318,-0.643,-0.978
18.561,1.434,-0.945,-0.895
18.582,1.357,-0.972,-1.038
18.602,1.296,-1.027,-1.176
18.623,1.274,-0.632,-1.379
18.644,1.170,-0.187,-1.577
18.664,0.912,-0.060,-1.571
18.685,0.818,0.187,-1.445
18.706,0.698,-0.011,-1.132
18.727,0.571,-0.121,-0.994
18.747,0.643,-0.654,-0.742
18.768,0.626,-0.923,-0.720
18.789,0.582,-1.060,-0.764
18.809,0.588,-0.895,-0.824
18.83,0.544,-0.549,-0.901
18.851,0.352,-0.428,-0.912
18.871,0.291,-0.137,-0.764
18.892,0.209,-0.181,-0.593
18.913,0.044,-0.247,-0.560
18.933,0.060,-0.560,-0.417
18.954,0.022,-0.709,-0.505
18.975,-0.132,-0.797,-0.577
18.996,-0.165,-0.731,-0.670
19.016,-0.231,-0.533,-0.720
19.037,-0.483,-0.467,-0.742
19.058,-0.516,-0.357,-0.577
19.078,-0.577,-0.412,-0.423
19.099,-0.692,-0.483,-0.434
19.12,-0.582,-0.791,-0.319
19.14,-0.571,-0.884,-0.423
19.161,-0.648,-0.961,-0.538
19.182,-0.637,-0.829,-0.615
19.202,-0.698,-0.527,-0.698
19.223,-0.978,-0.385,-0.758
19.244,-1.022,-0.066,-0.588
19.265,-1.093,0.159,-0.417
19.285,-1.274,0.225,-0.417
19.306,-1.137,0.209,-0.159
19.327,-1.132,0.209,-0.110
19.347,-1.154,0.165,-0.165
19.368,-1.011,0.066,-0.148
19.389,-1.000,0.165,-0.275
19.409,-1.165,0.176,-0.357
19.43,-1.148,0.302,-0.379
19.451,-1.208,0.533,-0.412
19.471,-1.428,0.599,-0.467
19.492,-1.280,0.714,-0.401
19.513,-1.263,0.851,-0.439
19.534,-1.252,0.862,-0.489
19.554,-1.027,0.857,-0.566
19.575,-0.967,0.934,-0.731
19.596,-1.093,0.917,-0.807
19.616,-1.033,0.868,-0.956
19.637,-1.066,0.923,-1.115
19.658,-1.269,0.901,-1.170
19.678,-1.082,0.917,-1.324
19.699,-1.044,1.121,-1.527
19.72,-0.983,1.208,-1.593
19.74,-0.720,1.527,-1.818
19.761,-0.626,1.868,-2.010
19.782,-0.698,2.027,-2.082
19.803,-0.643,2.252,-2.098
19.823,-0.648,2.329,-1.956
19.844,-0.824,2.318,-1.928
19.865,-0.670,2.142,-1.571
19.885,-0.599,2.071,-1.313
19.906,-0.445,1.978,-1.252
19.927,-0.203,1.989,-1.093
19.947,-0.060,2.104,-1.044
19.968,-0.104,2.170,-1.060
19.989,-0.132,2.302,-0.934
20.009,-0.154,2.335,-0.714
20.03,-0.319,2.313,-0.670
20.051,-0.225,2.214,-0.346
20.072,-0.121,2.159,-0.198
20.092,0.044,2.098,-0.181
20.113,0.192,2.131,-0.220
20.134,0.313,2.225,-0.313
20.154,0.198,2.269,-0.390
20.175,0.088,2.236,-0.445
20.196,0.049,2.115,-0.423
20.216,-0.137,1.989,-0.456
20.237,-0.066,1.620,-0.494
20.258,0.033,1.445,-0.703
20.278,0.214,1.296,-0.824
20.299,0.368,1.198,-1.252
20.32,0.511,1.230,-1.412
20.341,0.445,1.241,-1.516
20.361,0.363,1.285,-1.187
20.382,0.346,1.346,-0.571
20.403,0.154,1.373,-0.401
20.423,0.170,1.384,0.450
20.444,0.258,1.324,0.906
20.465,0.269,1.252,1.011
20.485,0.297,0.928,1.060
20.506,0.363,0.753,1.005
20.527,0.132,0.593,0.923
20.547,-0.011,0.406,1.055
20.568,-0.055,0.374,1.340
20.589,-0.286,0.352,1.395
20.61,-0.308,0.192,1.615
20.63,-0.214,0.022,1.522
20.651,-0.269,-0.165,1.428
20.672,-0.297,-0.577,0.895
20.692,-0.231,-0.648,0.439
20.713,-0.516,-0.687,0.214
20.734,-0.659,-0.390,-0.060
20.754,-0.698,-0.044,-0.011
20.775,-0.934,0.330,0.000
20.796,-0.956,0.676,0.154
20.816,-0.846,0.687,0.159
20.837,-0.851,0.626,0.132
20.858,-0.824,0.115,-0.093
20.879,-0.692,-0.132,-0.192
20.899,-0.884,-0.379,-0.269
20.92,-0.983,-0.417,-0.099
20.941,-0.972,-0.247,0.231
20.961,-1.170,0.000,0.352
20.982,-1.208,0.253,0.753
21.003,-1.104,0.264,0.989
21.023,-1.170,0.187,1.055
21.044,-1.198,-0.225,1.099
21.065,-1.121,-0.401,1.104
21.085,-1.362,-0.593,1.049
21.106,-1.549,-0.505,0.879
21.127,-1.642,-0.319,0.769
21.148,-1.923,0.000,0.670
21.168,-1.950,0.302,0.406
21.189,-1.813,0.313,0.280
21.21,-1.626,0.236,0.181
21.23,-1.549,-0.225,0.005
21.251,-1.362,-0.434,0.033
21.272,-1.560,-0.709,0.011
21.292,-1.774,-0.725,0.033
21.313,-1.983,-0.621,0.154
21.334,-2.307,-0.335,0.165
21.354,-2.384,-0.071,0.187
21.375,-2.291,-0.033,0.286
21.396,-2.049,-0.011,0.286
21.417,-1.939,-0.209,0.181
21.437,-1.686,-0.308,0.198
21.458,-1.725,-0.396,0.143
21.479,-1.901,-0.319,0.033
21.499,-2.087,-0.247,0.148
21.52,-2.444,0.055,0.154
21.541,-2.593,0.313,0.275
21.561,-2.576,0.352,0.505
21.582,-2.384,0.456,0.577
21.603,-2.296,0.313,0.643
21.623,-1.950,0.225,0.709
21.644,-1.791,0.099,0.676
21.665,-1.879,0.022,0.456
21.686,-1.873,-0.022,0.324
21.706,-2.049,0.115,0.198
21.727,-2.170,0.192,-0.110
21.748,-2.065,0.165,-0.236
21.768,-1.868,0.209,-0.368
21.789,-1.835,0.093,-0.626
21.81,-1.494,0.016,-0.753
21.83,-1.368,0.066,-0.857
21.851,-1.456,0.253,-1.011
21.872,-1.401,0.258,-1.066
21.892,-1.478,0.786,-1.126
21.913,-1.577,1.181,-1.329
21.934,-1.340,1.230,-1.489
21.955,-1.049,1.461,-1.626
21.975,-1.055,1.340,-1.884
21.996,-0.659,1.258,-1.950
22.017,-0.555,1.104,-2.010
22.037,-0.670,1.077,-1.961
22.058,-0.632,1.038,-1.818
22.079,-0.703,1.379,-1.725
22.099,-0.824,1.681,-1.505
22.12,-0.582,1.719,-1.324
22.141,-0.302,1.945,-1.208
22.161,-0.341,1.890,-1.033
22.182,0.060,1.857,-0.862
22.203,0.176,1.730,-0.742
22.224,0.044,1.703,-0.577
22.244,0.110,1.697,-0.456
22.265,0.088,1.890,-0.390
22.286,-0.060,1.967,-0.467
22.306,0.203,1.989,-0.571
22.327,0.417,1.824,-0.670
22.348,0.341,1.483,-0.939
22.368,0.643,1.401,-1.022
22.389,0.665,1.121,-1.066
22.41,0.544,1.104,-1.022
22.43,0.544,1.104,-0.879
22.451,0.544,1.390,-0.747
22.472,0.434,1.522,-0.621
22.493,0.654,1.549,-0.566
22.513,0.857,1.406,-0.544
22.534,0.813,1.104,-0.681
22.555,1.011,1.016,-0.709
22.575,1.060,0.802,-0.725
22.596,1.000,0.868,-0.714
22.617,0.978,0.884,-0.604
22.637,1.011,1.192,-0.489
22.658,0.939,1.368,-0.379
22.679,1.049,1.406,-0.313
22.699,1.154,1.346,-0.225
22.72,1.104,1.132,-0.291
22.741,1.082,1.044,-0.302
22.762,1.016,0.835,-0.313
22.782,0.901,0.807,-0.417
22.803,0.747,0.775,-0.423
22.824,0.758,0.879,-0.417
22.844,0.670,0.906,-0.483
22.865,0.698,0.879,-0.472
22.886,0.758,0.758,-0.445
22.906,0.681,0.621,-0.505
22.927,0.560,0.544,-0.511
22.948,0.478,0.494,-0.500
22.968,0.357,0.599,-0.456
22.989,0.176,0.593,-0.341
23.01,0.137,0.824,-0.170
23.031,0.016,0.939,0.137
23.051,-0.066,0.934,0.324
23.072,-0.033,0.857,0.544
23.093,-0.148,0.709,0.676
23.113,-0.368,0.610,0.687
23.134,-0.698,0.461,0.676
23.155,-0.945,0.478,0.472
23.175,-1.412,0.439,0.363
23.196,-1.247,0.533,0.236
23.217,-1.313,0.527,0.082
23.237,-0.632,0.483,0.055
23.258,-0.027,0.335,0.066
23.279,0.049,0.236,0.082
23.3,-0.110,0.148,0.077
23.32,-0.599,0.203,0.093
23.341,-0.917,0.385,-0.022
23.362,-1.637,0.428,-0.071
23.382,-1.609,0.736,-0.060
23.403,-1.736,0.873,-0.005
23.424,-1.126,0.901,0.049
23.444,-0.428,0.829,0.242
23.465,-0.319,0.709,0.401
23.486,-0.104,0.637,0.417
23.506,-0.275,0.615,0.505
23.527,-0.472,0.742,0.385
23.548,-1.055,0.791,0.313
23.569,-1.033,1.082,0.253
23.589,-1.115,1.219,0.181
23.61,-0.549,1.263,0.126
23.631,0.099,1.154,0.209
23.651,0.291,1.011,0.148
23.672,0.522,0.928,0.066
23.693,0.450,0.846,-0.066
23.713,0.352,0.950,-0.423
23.734,-0.093,0.972,-0.604
23.755,-0.181,1.165,-0.895
23.775,-0.253,1.285,-1.165
23.796,-0.242,1.302,-1.280
23.817,-0.088,1.263,-1.252
23.838,-0.071,1.241,-1.192
23.858,-0.143,1.208,-1.230
23.879,-0.214,1.263,-1.005
23.9,-0.297,1.439,-0.879
23.92,-0.527,1.494,-0.901
23.941,-0.428,1.664,-0.681
23.962,-0.445,1.763,-0.604
23.982,-0.308,1.774,-0.632
24.003,-0.104,1.653,-0.516
24.024,-0.066,1.593,-0.566
24.044,-0.170,1.522,-0.615
24.065,-0.126,1.450,-0.681
24.086,-0.170,1.571,-0.807
24.107,-0.280,1.588,-0.868
24.127,-0.137,1.703,-0.928
24.148,-0.121,1.813,-1.033
24.169,-0.203,1.818,-1.077
24.189,-0.198,1.708,-1.165
24.21,-0.247,1.714,-1.258
24.231,-0.610,1.648,-1.302
24.251,-0.648,1.631,-1.280
24.272,-0.731,1.818,-1.236
24.293,-0.851,1.868,-1.236
24.313,-0.670,1.994,-1.121
24.334,-0.632,2.093,-1.055
24.355,-0.676,2.076,-1.038
24.376,-0.599,1.895,-0.906
24.396,-0.632,1.846,-0.758
24.417,-0.928,1.763,-0.742
24.438,-0.901,1.692,-0.439
24.458,-0.945,1.802,-0.154
24.479,-1.071,1.824,-0.104
24.5,-0.857,1.857,0.220
24.52,-0.818,1.895,0.357
24.541,-0.890,1.857,0.374
24.562,-0.813,1.664,0.478
24.582,-0.818,1.615,0.560
24.603,-1.088,1.538,0.544
24.624,-0.989,1.494,0.692
24.645,-0.994,1.582,0.786
24.665,-1.027,1.609,0.786
24.686,-0.851,1.681,0.818
24.707,-0.807,1.703,0.709
24.727,-1.104,1.686,0.632
24.748,-1.247,1.516,0.379
24.769,-1.412,1.395,0.198
24.789,-1.917,1.269,0.093
24.81,-1.945,1.154,0.011
24.831,-1.972,1.165,0.049
24.851,-1.934,1.159,0.016
24.872,-1.741,1.230,0.093
24.893,-1.642,1.263,0.104
24.914,-1.857,1.247,0.060
24.934,-2.049,1.137,-0.038
24.955,-2.192,1.038,-0.121
24.976,-2.664,0.945,-0.198
24.996,-2.829,0.786,-0.247
25.017,-2.900,0.725,-0.187
25.038,-3.021,0.670,-0.236
25.058,-3.016,0.560,-0.148
25.079,-2.972,0.478,-0.082
25.1,-3.148,0.396,-0.126
25.12,-3.241,0.203,-0.132
25.141,-3.279,0.137,-0.126
25.162,-3.543,0.071,-0.187
25.183,-3.724,0.038,-0.220
25.203,-3.829,0.088,-0.192
25.224,-4.098,0.126,-0.231
25.245,-3.988,0.214,-0.220
25.265,-3.834,0.269,-0.214
25.286,-3.318,0.308,-0.247
25.307,-2.889,0.286,-0.313
25.327,-2.505,0.297,-0.412
25.348,-2.422,0.302,-0.489
25.369,-2.571,0.291,-0.665
25.389,-2.664,0.335,-0.780
25.41,-3.126,0.357,-0.862
25.431,-3.159,0.302,-0.972
25.452,-3.054,0.264,-1.038
25.472,-2.620,0.214,-1.082
25.493,-2.142,0.066,-1.176
25.514,-1.653,0.049,-1.137
25.534,-1.225,0.044,-1.154
25.555,-1.143,0.093,-0.978
25.576,-1.033,0.198,-0.698
25.596,-1.434,0.319,-0.604
25.617,-1.549,0.396,-0.242
25.638,-1.533,0.423,0.022
25.658,-1.395,0.450,0.099
25.679,-1.093,0.363,0.198
25.7,-0.687,0.368,0.225
25.721,-0.313,0.374,0.198
25.741,-0.154,0.406,0.137
25.762,0.055,0.489,0.187
25.783,-0.165,0.588,0.165
25.803,-0.324,0.665,0.137
25.824,-0.390,0.725,0.137
25.845,-0.775,0.764,0.099
25.865,-0.879,0.725,-0.192
25.886,-0.818,0.731,-0.401
25.907,-0.720,0.703,-0.549
25.927,-0.582,0.681,-0.895
25.948,-0.302,0.703,-0.890
25.969,-0.269,0.720,-0.923
25.99,-0.302,0.714,-0.791
26.01,-0.242,0.709,-0.527
26.031,-0.483,0.698,-0.434
26.052,-0.549,0.626,-0.264
26.072,-0.461,0.626,-0.071
26.093,-0.330,0.632,-0.016
26.114,-0.192,0.681,0.082
26.134,0.110,0.758,0.341
26.155,0.319,0.862,0.428
26.176,0.335,0.939,0.670
26.196,0.445,0.967,0.956
26.217,0.231,1.000,1.060
26.238,0.104,0.994,1.137
26.259,0.071,0.994,1.219
26.279,0.126,1.055,1.181
26.3,0.220,1.088,1.022
26.321,0.489,1.099,0.983
26.341,0.731,1.137,0.912
26.362,0.742,1.066,0.813
26.383,0.857,1.022,0.873
26.403,0.687,0.994,0.862
26.424,0.549,1.011,0.873
26.445,0.500,1.027,0.950
26.465,0.483,1.214,0.956
26.486,0.456,1.368,0.967
26.507,0.615,1.390,1.016
26.528,0.632,1.522,1.033
26.548,0.533,1.434,1.022
26.569,0.516,1.379,1.005
26.59,0.275,1.307,0.994
26.61,0.110,1.236,0.835
26.631,0.077,1.187,0.725
26.652,0.137,1.302,0.626
26.672,0.132,1.401,0.374
26.693,0.445,1.373,0.242
26.714,0.654,1.527,0.115
26.734,0.593,1.544,-0.143
26.755,0.687,1.500,-0.313
26.776,0.423,1.609,-0.456
26.797,0.203,1.681,-0.769
26.817,0.044,1.659,-0.950
26.838,-0.038,1.835,-1.110
26.859,-0.143,1.868,-1.373
26.879,0.137,1.824,-1.423
26.9,0.341,1.862,-1.467
26.921,0.253,1.769,-1.450
26.941,0.396,1.708,-1.373
26.962,0.192,1.697,-1.313
26.983,-0.011,1.664,-1.302
27.003,-0.121,1.626,-1.296
27.024,-0.181,1.708,-1.296
27.045,-0.319,1.725,-1.412
27.066,-0.066,1.703,-1.445
27.086,0.121,1.791,-1.472
27.107,0.033,1.785,-1.555
27.128,0.302,1.774,-1.593
27.148,0.176,1.785,-1.615
27.169,-0.005,1.747,-1.785
27.19,-0.368,1.730,-1.906
27.21,-0.489,1.741,-2.010
27.231,-0.643,1.708,-2.291
27.252,0.077,1.703,-2.384
27.272,1.022,1.697,-2.433
27.293,1.159,1.626,-2.444
27.314,1.906,1.599,-2.329
27.335,1.725,1.511,-2.192
27.355,1.571,1.401,-2.032
27.376,0.769,1.373,-1.901
27.397,0.253,1.362,-1.774
27.417,0.038,1.373,-1.719
27.438,0.198,1.379,-1.675
27.459,0.807,1.417,-1.620
27.479,0.901,1.390,-1.785
27.5,1.522,1.379,-1.829
27.521,1.549,1.412,-1.873
27.541,1.472,1.500,-1.659
27.562,0.890,1.516,-1.274
27.583,0.472,1.637,-0.780
27.604,0.275,1.637,0.220
27.624,0.412,1.620,0.846
27.645,1.022,1.494,1.577
27.666,1.115,1.307,2.225
27.686,1.697,1.241,2.395
27.707,1.736,1.049,2.499
27.728,1.642,0.934,2.455
27.748,1.110,0.873,2.532
27.769,0.643,0.824,2.681
27.79,0.406,0.807,3.010
27.81,0.088,0.775,3.159
27.831,0.137,0.807,3.351
27.852,0.044,0.846,3.192
27.873,0.071,0.835,2.950
27.893,0.038,0.890,2.532
27.914,-0.082,0.884,1.741
27.935,-0.494,0.851,1.406
27.955,-0.769,0.747,0.989
27.976,-0.972,0.632,0.824
27.997,-1.176,0.566,0.835
28.017,-1.104,0.461,0.961
28.038,-1.198,0.445,0.978
28.059,-1.208,0.406,0.912
28.079,-1.126,0.494,0.769
28.1,-1.230,0.555,0.500
28.121,-1.181,0.527,0.439
28.142,-0.901,0.505,0.533
28.162,-0.945,0.412,0.983
28.183,-0.742,0.346,1.214
28.204,-0.615,0.225,1.901
28.224,-0.714,0.203,2.444
28.245,-0.912,0.148,2.565
28.266,-0.983,0.220,2.802
28.286,-1.143,0.302,2.576
28.307,-1.258,0.286,2.417
28.328,-1.115,0.308,2.016
28.348,-1.176,0.264,1.505
28.369,-1.033,0.203,1.291
28.39,-0.879,0.137,0.917
28.411,-0.945,0.137,0.478
28.431,-1.115,0.099,0.280
28.452,-1.225,0.214,-0.181
28.473,-1.368,0.352,-0.769
28.493,-1.582,0.374,-0.978
28.514,-1.555,0.500,-1.412
28.535,-1.626,0.560,-1.593
28.555,-1.714,0.560,-1.681
28.576,-1.714,0.593,-1.439
28.597,-1.785,0.610,-1.285
28.617,-1.923,0.593,-1.307
28.638,-1.829,0.599,-1.368
28.659,-1.840,0.615,-1.730
28.68,-1.703,0.599,-1.873
28.7,-1.478,0.599,-2.082
28.721,-1.434,0.604,-1.906
28.742,-1.412,0.588,-1.890
28.762,-1.461,0.588,-1.159
28.783,-1.538,0.588,-0.571
28.804,-1.857,0.582,-0.439
28.824,-1.906,0.544,-0.170
28.845,-1.961,0.522,-0.412
28.866,-1.928,0.483,-0.483
28.886,-1.697,0.423,-0.994
28.907,-1.626,0.467,-1.296
28.928,-1.538,0.461,-1.390
28.949,-1.384,0.599,-1.346
28.969,-1.373,0.802,-1.230
28.99,-1.357,0.868,-1.219
29.011,-1.088,1.038,-1.285
29.031,-1.005,1.159,-1.599
29.052,-0.813,1.181,-1.719
29.073,-0.577,1.203,-2.142
29.093,-0.522,1.307,-2.362
29.114,-0.615,1.329,-2.439
29.135,-0.544,1.489,-2.411
29.155,-0.560,1.708,-2.335
29.176,-0.560,1.780,-2.335
29.197,-0.209,1.873,-2.406
29.218,-0.088,1.901,-2.626
29.238,0.077,1.873,-2.725
29.259,0.104,1.747,-3.021
29.28,0.049,1.791,-2.999
29.3,-0.467,1.774,-3.021
29.321,-0.434,1.840,-2.488
29.342,-0.467,1.994,-1.862
29.362,-0.115,2.027,-1.692
29.383,0.544,2.005,-1.022
29.404,0.868,2.027,-0.676
29.424,1.066,1.972,-0.621
29.445,0.994,1.868,-0.450
29.466,0.846,2.000,-0.335
29.487,0.099,2.021,-0.357
29.507,-0.060,2.186,-0.264
29.528,-0.203,2.357,-0.335
29.549,-0.126,2.406,-0.412
29.569,0.379,2.346,-0.676
29.59,0.665,2.280,-0.654
29.611,0.928,2.186,-0.709
29.631,0.956,1.956,-0.203
29.652,0.895,1.956,0.533
29.673,0.258,1.917,0.753
29.693,0.044,1.989,1.736
29.714,-0.099,2.098,2.280
29.735,-0.077,2.131,2.417
29.756,0.291,2.082,2.538
29.776,0.538,2.005,2.598
29.797,0.731,1.906,2.571
29.818,0.692,1.752,2.889
29.838,0.632,1.730,3.219
29.859,0.038,1.703,3.312
29.88,-0.357,1.719,3.461
29.9,-0.599,1.725,3.279
29.921,-1.000,1.686,3.175
29.942,-0.994,1.522,2.527
29.962,-0.928,1.395,1.923
29.983,-0.769,1.280,1.642
30.004,-0.654,1.126,1.093
30.025,-0.538,1.137,0.890
30.045,-0.764,1.137,0.797
30.066,-0.950,1.192,0.714
30.087,-1.060,1.208,0.676
30.107,-1.263,1.198,0.626
30.128,-1.187,1.027,0.610
30.149,-1.049,0.879,0.797
30.169,-0.851,0.742,0.846
30.19,-0.659,0.527,1.340
30.211,-0.439,0.461,1.796
30.231,-0.423,0.406,1.972
30.252,-0.472,0.352,2.280
30.273,-0.467,0.308,2.444
30.294,-0.775,0.264,2.466
30.314,-0.873,0.121,2.543
30.335,-0.857,0.066,2.675
30.356,-0.884,0.005,2.686
30.376,-0.764,-0.022,2.582
30.397,-0.560,0.033,2.335
30.418,-0.500,0.093,2.142
30.438,-0.439,0.159,1.335
30.459,-0.335,0.187,0.753
30.48,-0.379,0.181,0.401
30.5,-0.330,0.077,-0.324
30.521,-0.181,0.038,-0.577
30.542,-0.154,0.011,-0.736
30.563,-0.104,-0.055,-0.873
30.583,0.060,0.000,-0.714
30.604,-0.082,0.049,-0.659
30.625,-0.187,0.115,-0.434
30.645,-0.192,0.176,-0.198
30.666,-0.478,0.214,-0.132
30.687,-0.527,0.115,-0.291
30.707,-0.423,0.044,-0.450
30.728,-0.324,-0.033,-0.610
30.749,-0.143,-0.220,-1.033
30.769,0.176,-0.220,-1.060
30.79,0.225,-0.203,-1.115
30.811,0.176,-0.121,-0.950
30.832,0.187,0.000,-0.621
30.852,-0.148,0.121,-0.478
30.873,-0.258,0.159,-0.335
30.894,-0.225,0.192,-0.335
30.914,-0.148,0.187,-0.396
30.935,-0.011,0.099,-0.791
30.956,0.280,0.121,-0.956
30.976,0.379,0.148,-1.104
30.997,0.352,0.242,-1.170
31.018,0.401,0.313,-1.099
31.038,0.264,0.379,-1.077
31.059,0.253,0.374,-1.208
31.08,0.379,0.363,-1.417
31.101,0.549,0.324,-1.593
31.121,0.599,0.264,-2.000
31.142,0.764,0.313,-2.120
31.163,0.615,0.396,-2.203
31.183,0.445,0.577,-2.109
31.204,0.313,0.692,-1.994
31.225,0.154,0.840,-1.917
31.245,0.137,0.901,-2.000
31.266,0.341,0.906,-2.126
31.287,0.648,0.912,-2.258
31.307,0.736,0.884,-2.444
31.328,0.956,0.912,-2.335
31.349,0.868,1.000,-2.230
31.37,0.692,1.126,-1.725
31.39,0.538,1.192,-1.346
31.411,0.324,1.329,-1.077
31.432,0.231,1.379,-0.961
31.452,0.357,1.412,-1.110
31.473,0.533,1.483,-1.263
31.494,0.555,1.599,-1.862
31.514,0.786,1.642,-2.285
31.535,0.824,1.857,-2.637
31.556,0.731,2.043,-3.120
31.576,0.758,2.087,-3.104
31.597,0.648,2.219,-3.021
31.618,0.505,2.214,-2.505
31.639,0.516,2.181,-2.021
31.659,0.417,2.214,-1.588
31.68,0.286,2.241,-0.928
31.701,0.335,2.236,-0.588
31.721,0.297,2.433,-0.319
31.742,0.192,2.571,-0.104
31.763,0.275,2.576,0.143
31.783,0.258,2.725,0.385
31.804,0.126,2.747,0.901
31.825,0.187,2.708,1.198
31.845,0.126,2.802,1.456
31.866,-0.011,2.862,1.335
31.887,0.088,2.845,1.099
31.908,0.121,3.043,0.829
31.928,-0.005,3.109,0.143
31.949,0.143,3.065,-0.137
31.97,0.088,3.082,-0.374
31.99,-0.093,2.939,-0.489
32.011,-0.115,2.845,-0.456
32.032,-0.203,2.785,-0.390
32.052,-0.357,2.725,-0.626
32.073,-0.126,2.670,-0.851
32.094,0.077,2.763,-1.132
32.114,-0.016,2.741,-1.516
32.135,0.198,2.708,-1.494
32.156,0.099,2.659,-1.362
32.177,-0.082,2.521,-0.753
32.197,-0.148,2.461,-0.357
32.218,-0.165,2.373,0.148
32.239,-0.313,2.296,0.505
32.259,0.027,2.269,0.632
32.28,0.308,2.236,0.764
32.301,0.247,2.120,1.016
32.321,0.516,2.082,1.269
32.342,0.522,1.846,1.664
32.363,0.390,1.555,2.104
32.383,0.341,1.494,2.186
32.404,0.335,1.258,2.225
32.425,0.214,1.115,1.626
32.446,0.450,1.071,1.187
32.466,0.643,1.000,0.478
32.487,0.588,0.895,-0.385
32.508,0.703,0.851,-0.670
32.528,0.621,0.692,-0.939
32.549,0.505,0.527,-0.956
32.57,0.302,0.472,-0.934
32.59,0.203,0.363,-0.829
32.611,0.099,0.308,-0.818
32.632,0.071,0.286,-0.802
32.652,0.093,0.291,-0.736
32.673,0.027,0.236,-0.566
32.694,-0.027,0.214,-0.428
32.715,-0.033,0.104,-0.005
32.735,-0.121,0.016,0.593
32.756,-0.093,-0.016,0.818
32.777,-0.011,0.011,1.379
32.797,-0.066,0.071,1.642
32.818,-0.088,0.071,1.653
32.839,-0.143,0.104,1.708
32.859,-0.253,0.011,1.566
32.88,-0.456,-0.049,1.483
32.901,-0.566,-0.231,1.423
32.921,-0.692,-0.335,1.198
32.942,-0.786,-0.406,1.055
32.963,-0.736,-0.390,0.736
32.984,-0.829,-0.324,0.203
33.004,-0.824,-0.335,-0.027
33.025,-0.802,-0.275,-0.522
33.046,-0.901,-0.297,-0.994
33.066,-1.044,-0.346,-1.176
33.087,-1.088,-0.379,-1.373
33.108,-1.219,-0.346,-1.500
33.128,-1.258,-0.374,-1.582
33.149,-1.115,-0.258,-1.577
33.17,-1.192,-0.159,-1.664
33.19,-1.082,-0.165,-1.747
33.211,-0.934,-0.181,-1.703
33.232,-1.005,-0.269,-1.659
33.253,-0.978,-0.341,-1.708
33.273,-0.857,-0.434,-1.505
33.294,-0.934,-0.423,-1.412
33.315,-0.906,-0.467,-1.434
33.335,-0.764,-0.330,-1.274
33.356,-0.846,-0.225,-1.208
33.377,-0.884,-0.209,-1.225
33.397,-0.851,-0.187,-1.104
33.418,-0.983,-0.225,-1.082
33.439,-1.110,-0.258,-1.093
33.459,-1.038,-0.269,-0.989
33.48,-1.154,-0.214,-0.840
33.501,-1.082,-0.209,-0.807
33.522,-0.851,-0.071,-0.478
33.542,-0.895,0.011,-0.264
33.563,-0.829,0.022,-0.225
33.584,-0.731,-0.033,-0.236
33.604,-0.824,-0.132,-0.588
33.625,-0.961,-0.203,-0.709
33.646,-0.939,-0.297,-1.176
33.666,-1.038,-0.242,-1.269
33.687,-1.110,-0.242,-1.318
33.708,-1.027,-0.055,-0.753
33.728,-1.093,0.137,-0.027
33.749,-1.143,0.181,0.165
33.77,-1.044,0.324,0.912
33.791,-1.082,0.401,1.126
33.811,-1.027,0.417,1.165
33.832,-0.818,0.456,1.055
33.853,-0.797,0.533,1.044
33.873,-0.654,0.527,1.011
33.894,-0.511,0.599,1.357
33.915,-0.511,0.692,1.747
33.935,-0.643,0.709,1.840
33.956,-0.687,0.753,2.016
33.977,-0.764,0.851,1.752
33.997,-0.873,0.862,1.631
34.018,-0.714,0.939,0.868
34.039,-0.681,1.060,0.203
34.06,-0.522,1.082,-0.055
34.08,-0.313,1.170,-0.505
34.101,-0.269,1.296,-0.560
34.122,-0.346,1.324,-0.610
34.142,-0.297,1.379,-0.456
34.163,-0.319,1.505,-0.396
34.184,-0.423,1.522,-0.423
34.204,-0.253,1.522,-0.505
34.225,-0.236,1.593,-0.494
34.246,-0.203,1.566,-0.555
34.266,-0.027,1.450,-0.203
34.287,-0.005,1.428,0.319
34.308,-0.148,1.362,0.450
34.329,-0.126,1.236,1.049
34.349,-0.154,1.291,1.368
34.37,-0.286,1.263,1.417
34.391,-0.066,1.225,1.417
34.411,0.005,1.291,1.192
34.432,0.126,1.274,1.055
34.453,0.363,1.137,0.676
34.473,0.417,1.115,0.527
34.494,0.192,1.044,0.423
34.515,0.176,0.890,0.423
34.535,0.093,0.917,0.417
34.556,-0.121,0.868,0.374
34.577,0.115,0.840,0.082
34.598,0.203,0.879,-0.236
34.618,0.352,0.862,-0.401
34.639,0.604,0.764,-0.610
34.66,0.681,0.692,-0.456
34.68,0.445,0.604,-0.412
34.701,0.396,0.461,0.066
34.722,0.330,0.483,0.374
34.742,0.055,0.478,0.472
34.763,0.253,0.549,0.439
34.784,0.341,0.511,0.187
34.804,0.522,0.450,0.027
34.825,0.813,0.126,-0.341
34.846,0.928,-0.077,-0.428
34.867,0.780,-0.247,-0.478
34.887,0.769,-0.423,-0.330
34.908,0.720,-0.467,-0.170
34.929,0.522,-0.511,-0.132
34.949,0.643,-0.648,-0.181
34.97,0.709,-0.775,-0.275
34.991,0.753,-0.895,-0.368
35.011,0.846,-1.077,-0.494
35.032,0.895,-1.000,-0.396
35.053,0.698,-0.956,-0.357
35.073,0.670,-0.533,-0.126
35.094,0.665,-0.170,-0.033
35.115,0.648,0.093,-0.044
35.136,0.791,0.324,-0.456
35.156,0.923,0.324,-0.906
35.177,1.022,0.280,-1.187
35.198,1.038,0.011,-1.807
35.218,1.093,-0.033,-1.994
35.239,0.912,-0.060,-2.115
35.26,0.917,0.159,-2.241
35.28,0.978,0.406,-2.302
35.301,1.143,0.615,-2.373
35.322,1.390,0.698,-2.659
35.342,1.626,0.621,-2.725
35.363,1.714,0.505,-2.785
35.384,1.670,0.181,-2.692
35.405,1.681,0.132,-2.302
35.425,1.351,0.137,-2.126
35.446,1.258,0.439,-1.642
35.467,1.258,0.758,-1.269
35.487,1.263,1.071,-1.132
35.508,1.401,1.285,-1.016
35.529,1.582,1.280,-0.829
35.549,1.593,1.214,-0.786
35.57,1.555,0.846,-0.709
35.591,1.582,0.747,-0.505
35.611,1.313,0.670,-0.456
35.632,1.274,0.829,-0.385
35.653,1.346,1.044,-0.247
35.674,1.346,1.313,-0.247
35.694,1.423,1.527,-0.247
35.715,1.593,1.566,-0.148
35.736,1.456,1.555,-0.126
35.756,1.351,1.406,0.022
35.777,1.346,1.401,0.258
35.798,1.022,1.412,0.346
35.818,0.945,1.560,0.500
35.839,0.994,1.670,0.555
35.86,0.989,1.807,0.560
35.88,1.038,1.846,0.505
35.901,1.214,1.824,0.544
35.922,1.049,1.769,0.566
35.943,0.895,1.615,0.698
35.963,0.846,1.588,0.851
35.984,0.428,1.566,0.934
36.005,0.280,1.588,1.121
36.025,0.253,1.599,1.280
36.046,0.187,1.631,1.368
36.067,0.209,1.500,1.522
36.087,0.374,1.406,1.648
36.108,0.319,1.252,1.703
36.129,0.220,1.049,1.686
36.149,0.176,1.005,1.588
36.17,-0.148,1.016,1.478
36.191,-0.302,1.115,1.104
36.212,-0.352,1.154,0.862
36.232,-0.396,1.263,0.665
36.253,-0.417,1.236,0.341
36.274,-0.330,1.170,0.214
36.294,-0.406,1.060,0.115
36.315,-0.538,0.857,-0.027
36.336,-0.604,0.775,-0.033
36.356,-0.851,0.747,-0.044
36.377,-0.972,0.742,-0.055
36.398,-0.945,0.736,-0.016
36.418,-0.906,0.857,0.022
36.439,-0.983,0.835,-0.038
36.46,-0.972,0.764,-0.082
36.481,-1.192,0.714,-0.143
36.501,-1.318,0.549,-0.379
36.522,-1.285,0.472,-0.494
36.543,-1.044,0.494,-0.582
36.563,-0.961,0.555,-0.725
36.584,-0.533,0.538,-0.698
36.605,-0.308,0.687,-0.643
36.625,-0.385,0.610,-0.615
36.646,-0.385,0.527,-0.615
36.667,-0.703,0.330,-0.626
36.687,-0.906,0.066,-0.928
36.708,-0.961,-0.049,-1.115
36.729,-0.857,-0.060,-1.296
36.75,-0.857,0.066,-1.566
36.77,-0.445,0.066,-1.604
36.791,-0.165,0.434,-1.604
36.812,-0.225,0.555,-1.609
36.832,-0.137,0.549,-1.593
36.853,-0.423,0.352,-1.571
36.874,-0.648,-0.110,-1.730
36.894,-0.720,-0.242,-1.829
36.915,-0.615,-0.516,-1.950
36.936,-0.681,-0.467,-2.197
36.956,-0.214,-0.467,-2.291
36.977,0.099,-0.236,-2.373
36.998,0.038,-0.319,-2.466
37.019,0.220,-0.335,-2.472
37.039,0.044,-0.753,-2.450
37.06,-0.159,-1.115,-2.428
37.081,-0.330,-1.214,-2.422
37.101,-0.478,-1.126,-2.406
37.122,-0.659,-0.626,-2.521
37.143,-0.456,-0.500,-2.565
37.163,-0.187,0.225,-2.615
37.184,-0.253,0.456,-2.549
37.205,0.055,0.522,-2.422
37.225,-0.011,0.269,-2.120
37.246,-0.170,-0.181,-1.653
37.267,-0.357,-0.313,-1.445
37.288,-0.555,-0.582,-1.066
37.308,-0.709,-0.434,-0.923
37.329,-0.571,-0.401,-0.917
37.35,-0.280,0.049,-0.939
37.37,-0.302,0.258,-1.033
37.391,0.110,0.302,-1.033
37.412,0.242,0.143,-0.906
37.432,0.176,-0.181,-0.659
37.453,0.049,-0.302,-0.593
37.474,-0.170,-0.500,-0.363
37.494,-0.297,-0.401,-0.456
37.515,-0.379,-0.396,-0.555
37.536,-0.214,-0.071,-0.736
37.557,-0.247,0.093,-0.912
37.577,-0.027,0.110,-0.978
37.598,0.071,0.011,-0.753
37.619,0.022,-0.214,-0.346
37.639,-0.049,-0.319,-0.247
37.66,-0.077,-0.439,0.253
37.681,-0.159,-0.335,0.406
37.701,-0.110,-0.324,0.374
37.722,0.022,-0.027,0.396
37.743,-0.016,0.159,0.346
37.763,0.022,0.187,0.280
37.784,-0.055,0.203,0.549
37.805,-0.170,0.192,0.786
37.826,-0.385,0.148,0.791
37.846,-0.412,0.286,1.044
37.867,-0.511,0.571,0.934
37.888,-0.357,0.632,0.846
37.908,-0.066,0.994,0.577
37.929,-0.066,1.187,0.302
37.95,0.181,1.214,0.187
37.97,0.242,1.280,0.187
37.991,0.143,1.335,0.275
38.012,-0.027,1.313,0.264
38.032,-0.082,1.494,0.439
38.053,-0.214,1.620,0.379
38.074,-0.198,1.648,0.335
38.095,0.038,1.653,0.170
38.115,-0.016,1.478,-0.027
38.136,0.187,1.373,-0.110
38.157,0.335,1.121,-0.115
38.177,0.258,1.082,-0.005
38.198,0.181,1.055,0.005
38.219,0.209,1.340,0.192
38.239,0.093,1.626,0.275
38.26,0.187,1.725,0.275
38.281,0.472,1.906,0.319
38.301,0.450,1.824,0.352
38.322,0.670,1.758,0.357
38.343,0.857,1.500,0.533
38.364,0.780,1.313,0.703
38.384,0.731,1.214,0.725
38.405,0.835,1.099,0.818
38.426,0.731,1.049,0.648
38.446,0.879,1.016,0.571
38.467,1.203,0.868,0.093
38.488,1.203,0.709,-0.401
38.508,1.390,0.610,-0.577
38.529,1.527,0.390,-1.027
38.55,1.445,0.352,-1.241
38.57,1.390,0.319,-1.340
38.591,1.494,0.401,-1.335
38.612,1.417,0.555,-1.176
38.633,1.494,0.593,-1.159
38.653,1.703,0.670,-0.862
38.674,1.675,0.654,-0.676
38.695,1.719,0.610,-0.648
38.715,1.802,0.406,-0.555
38.736,1.741,0.379,-0.538
38.757,1.697,0.335,-0.588
38.777,1.813,0.538,-0.566
38.798,1.774,0.857,-0.417
38.819,1.774,0.972,-0.434
38.839,1.829,1.027,-0.176
38.86,1.791,0.857,-0.038
38.881,1.681,0.714,-0.049
38.902,1.675,0.176,-0.148
38.922,1.620,-0.033,-0.374
38.943,1.522,-0.181,-0.522
38.964,1.582,-0.291,-0.879
38.984,1.560,-0.236,-1.093
39.005,1.505,-0.253,-1.230
39.026,1.544,-0.478,-1.335
39.046,1.505,-0.604,-1.291
39.067,1.357,-0.736,-1.313
39.088,1.357,-0.862,-1.219
39.108,1.313,-0.615,-1.137
39.129,1.170,-0.500,-1.165
39.15,1.198,-0.104,-1.115
39.171,1.148,0.154,-1.016
39.191,0.961,0.225,-1.033
39.212,0.950,-0.044,-0.879
39.233,0.895,-0.341,-0.731
39.253,0.687,-0.593,-0.714
39.274,0.687,-0.989,-0.582
39.295,0.643,-0.901,-0.505
39.315,0.396,-0.873,-0.500
39.336,0.352,-0.516,-0.483
39.357,0.275,-0.275,-0.511
39.377,0.022,-0.187,-0.555
39.398,0.071,-0.335,-0.637
39.419,0.055,-0.511,-0.637
39.44,-0.093,-0.676,-0.659
39.46,-0.022,-0.813,-0.549
39.481,-0.049,-0.692,-0.428
39.502,-0.302,-0.610,-0.401
39.522,-0.330,-0.324,-0.401
39.543,-0.412,-0.225,-0.472
39.564,-0.731,-0.203,-0.538
39.584,-0.681,-0.500,-0.687
39.605,-0.709,-0.769,-0.654
39.626,-0.829,-0.983,-0.670
39.646,-0.709,-1.126,-0.494
39.667,-0.709,-0.956,-0.297
39.688,-0.901,-0.829,-0.236
39.709,-0.868,-0.330,-0.192
39.729,-0.928,-0.044,-0.231
39.75,-1.181,0.126,-0.297
39.771,-1.115,0.181,-0.461
39.791,-1.126,0.143,-0.445
39.812,-1.296,0.071,-0.472
39.833,-1.198,0.022,-0.396
39.853,-1.187,0.099,-0.242
39.874,-1.335,0.148,-0.214
39.895,-1.192,0.346,-0.181
39.915,-1.148,0.461,-0.126
39.936,-1.203,0.533,-0.143
39.957,-1.082,0.549,-0.275
39.978,-1.038,0.555,-0.319
39.998,-1.148,0.538,-0.390
40.019,-1.093,0.593,-0.676
40.04,-1.088,0.736,-0.802
40.06,-1.208,0.846,-0.917
40.081,-1.148,1.044,-1.198
40.102,-1.126,1.148,-1.214
40.122,-1.192,1.208,-1.280
40.143,-1.148,1.126,-1.346
40.164,-1.104,1.071,-1.302
40.184,-1.192,1.033,-1.329
40.205,-1.159,1.110,-1.566
40.226,-1.110,1.335,-1.725
40.247,-1.082,1.566,-1.879
40.267,-0.961,2.032,-2.258
40.288,-0.840,2.280,-2.313
40.309,-0.753,2.455,-2.390
40.329,-0.676,2.373,-2.368
40.35,-0.577,2.214,-2.142
40.371,-0.615,2.043,-2.049
40.391,-0.577,1.736,-1.791
40.412,-0.505,1.763,-1.555
40.433,-0.500,1.818,-1.439
40.453,-0.385,2.126,-1.219
40.474,-0.231,2.318,-0.994
40.495,-0.148,2.521,-0.884
40.516,-0.077,2.472,-0.610
40.536,0.038,2.368,-0.423
40.557,-0.055,2.225,-0.330
40.578,-0.066,1.956,-0.236
40.598,0.005,1.956,-0.198
40.619,-0.066,1.983,-0.209
40.64,-0.005,2.159,-0.275
40.66,0.132,2.258,-0.319
40.681,0.143,2.335,-0.363
40.702,0.198,2.060,-0.494
40.722,0.330,1.807,-0.599
40.743,0.225,1.505,-0.709
40.764,0.203,1.077,-1.049
40.785,0.269,1.022,-1.247
40.805,0.159,1.011,-1.417
40.826,0.165,1.219,-1.527
40.847,0.286,1.368,-1.335
40.867,0.253,1.527,-1.143
40.888,0.269,1.511,-0.560
40.909,0.406,1.406,-0.077
40.929,0.319,1.225,0.302
40.95,0.280,0.846,0.829
40.971,0.352,0.720,1.082
40.991,0.187,0.577,1.263
41.012,0.121,0.571,1.445
41.033,0.159,0.610,1.609
41.054,-0.027,0.670,1.780
41.074,-0.126,0.555,1.994
41.095,-0.121,0.406,2.032
41.116,-0.335,0.137,2.043
41.136,-0.456,-0.302,1.604
41.157,-0.467,-0.434,1.219
41.178,-0.632,-0.549,0.862
41.198,-0.709,-0.357,0.132
41.219,-0.692,-0.170,-0.181
41.24,-0.780,0.236,-0.434
41.26,-0.840,0.560,-0.610
41.281,-0.824,0.604,-0.560
41.302,-0.923,0.604,-0.494
41.323,-1.016,0.275,-0.445
41.343,-1.005,0.121,-0.374
41.364,-1.088,-0.115,-0.308
41.385,-1.154,-0.181,-0.220
41.405,-1.088,-0.126,-0.055
41.426,-1.082,0.143,0.159
41.447,-1.126,0.390,0.511
41.467,-1.016,0.401,0.764
41.488,-1.033,0.401,1.027
41.509,-1.115,0.071,1.241
41.529,-1.082,-0.060,1.351
41.55,-1.208,-0.291,1.439
41.571,-1.340,-0.335,1.401
41.592,-1.362,-0.319,1.357
41.612,-1.489,-0.038,1.296
41.633,-1.642,0.165,1.071
41.654,-1.686,0.159,0.945
41.674,-1.890,0.148,0.797
41.695,-2.054,-0.181,0.533
41.716,-2.065,-0.324,0.412
41.736,-1.972,-0.582,0.247
41.757,-2.000,-0.648,0.055
41.778,-1.631,-0.687,-0.005
41.798,-1.439,-0.412,-0.044
41.819,-1.544,-0.225,-0.011
41.84,-1.544,-0.225,0.060
41.861,-1.862,-0.154,0.198
41.881,-2.109,-0.297,0.308
41.902,-2.269,-0.379,0.330
41.923,-2.329,-0.379,0.363
41.943,-2.455,-0.280,0.264
41.964,-2.142,-0.291,0.220
41.985,-1.928,0.000,0.214
42.005,-2.021,0.110,0.308
42.026,-1.890,0.099,0.385
42.047,-2.115,0.143,0.621
42.067,-2.318,0.055,0.758
42.088,-2.499,0.016,0.758
42.109,-2.527,0.049,0.764
42.13,-2.659,0.093,0.533
42.15,-2.214,0.071,0.406
42.171,-1.862,0.176,0.242
42.192,-1.901,0.121,0.082
42.212,-1.631,0.110,0.005
42.233,-1.648,0.022,0.022
42.254,-1.802,-0.060,-0.093
42.274,-1.807,-0.071,-0.192
42.295,-1.708,0.044,-0.379
42.316,-1.796,0.258,-0.758
42.336,-1.412,0.324,-0.934
42.357,-1.093,0.670,-1.192
42.378,-1.132,0.890,-1.461
42.399,-0.928,0.945,-1.588
42.419,-0.923,1.082,-1.730
42.44,-1.011,1.099,-1.939
42.461,-1.005,1.082,-2.049
42.481,-0.846,1.099,-2.071
42.502,-0.890,1.132,-2.027
42.523,-0.588,1.137,-2.065
42.543,-0.379,1.318,-1.791
42.564,-0.401,1.483,-1.626
42.585,-0.379,1.527,-1.642
42.605,-0.396,1.681,-1.483
42.626,-0.478,1.681,-1.500
42.647,-0.385,1.664,-1.566
42.668,-0.137,1.593,-1.478
42.688,-0.148,1.560,-1.329
42.709,0.176,1.544,-1.335
42.73,0.385,1.681,-0.868
42.75,0.357,1.785,-0.522
42.771,0.324,1.796,-0.461
42.792,0.324,1.780,-0.203
42.812,0.225,1.599,-0.253
42.833,0.264,1.516,-0.297
42.854,0.478,1.274,-0.511
42.874,0.456,1.219,-0.714
42.895,0.676,1.165,-0.786
42.916,0.851,1.324,-0.775
42.937,0.802,1.467,-0.626
42.957,0.780,1.478,-0.593
42.978,0.835,1.417,-0.357
42.999,0.731,1.208,-0.341
43.019,0.764,1.082,-0.363
43.04,0.961,0.807,-0.538
43.061,0.895,0.742,-0.769
43.081,1.022,0.676,-0.846
43.102,1.170,0.901,-0.934
43.123,1.093,1.132,-0.846
43.143,1.038,1.159,-0.835
43.164,1.082,1.247,-0.555
43.185,0.967,1.181,-0.363
43.206,0.934,1.110,-0.324
43.226,1.071,0.967,-0.242
43.247,0.989,0.967,-0.302
43.268,1.011,0.928,-0.357
43.288,1.093,1.060,-0.467
43.309,0.972,1.154,-0.478
43.33,0.829,1.148,-0.522
43.35,0.802,1.060,-0.412
43.371,0.654,0.884,-0.280
43.392,0.472,0.780,-0.280
43.412,0.467,0.566,-0.187
43.433,0.341,0.500,-0.198
43.454,0.198,0.472,-0.247
43.475,0.192,0.621,-0.286
43.495,0.071,0.807,-0.247
43.516,-0.126,0.862,-0.269
43.537,-0.154,1.027,-0.099
43.557,-0.269,1.022,0.082
43.578,-0.396,0.994,0.088
43.599,-0.335,0.824,0.220
43.619,-0.412,0.687,0.286
43.64,-0.676,0.615,0.258
43.661,-1.011,0.516,0.302
43.681,-1.219,0.527,0.396
43.702,-1.631,0.500,0.363
43.723,-1.395,0.500,0.478
43.744,-1.351,0.494,0.533
43.764,-0.604,0.461,0.483
43.785,-0.049,0.412,0.374
43.806,0.143,0.478,0.236
43.826,-0.082,0.472,0.115
43.847,-0.538,0.659,-0.033
43.868,-0.797,0.884,0.022
43.888,-1.505,0.950,-0.011
43.909,-1.533,1.022,0.214
43.93,-1.566,0.989,0.412
43.95,-1.115,0.917,0.423
43.971,-0.560,0.648,0.461
43.992,-0.357,0.582,0.379
44.013,-0.264,0.516,0.308
44.033,-0.417,0.593,0.203
44.054,-0.555,0.868,0.231
44.075,-1.104,0.961,0.220
44.095,-1.016,1.170,0.308
44.116,-1.005,1.280,0.341
44.137,-0.467,1.274,0.324
44.157,0.181,1.110,0.148
44.178,0.428,1.099,-0.099
44.199,0.571,1.038,-0.247
44.219,0.494,1.038,-0.582
44.24,0.379,1.192,-0.731
44.261,-0.198,1.230,-0.829
44.282,-0.275,1.236,-0.884
44.302,-0.374,1.274,-0.901
44.323,-0.401,1.230,-0.928
44.344,-0.126,1.093,-0.989
44.364,-0.038,1.132,-1.022
44.385,-0.082,1.104,-1.055
44.406,-0.071,1.165,-1.044
44.426,-0.132,1.324,-0.939
44.447,-0.566,1.368,-0.906
44.468,-0.555,1.406,-0.807
44.488,-0.599,1.461,-0.736
44.509,-0.637,1.434,-0.742
44.53,-0.390,1.351,-0.818
44.551,-0.302,1.373,-0.824
44.571,-0.297,1.351,-0.884
44.592,-0.132,1.406,-0.967
44.613,-0.093,1.483,-0.972
44.633,-0.225,1.511,-1.016
44.654,-0.148,1.593,-1.170
44.675,-0.143,1.648,-1.214
44.695,-0.412,1.670,-1.280
44.716,-0.406,1.686,-1.379
44.737,-0.434,1.730,-1.263
44.757,-0.637,1.730,-1.247
44.778,-0.560,1.835,-1.132
44.799,-0.549,1.945,-0.961
44.82,-0.659,1.989,-0.928
44.84,-0.621,2.060,-0.912
44.861,-0.610,2.043,-0.780
44.882,-0.786,2.010,-0.764
44.902,-0.797,1.884,-0.643
44.923,-0.780,1.835,-0.396
44.944,-0.868,1.769,-0.313
44.964,-0.807,1.736,-0.192
44.985,-0.742,1.758,-0.077
45.006,-0.807,1.747,-0.077
45.026,-0.835,1.697,-0.203
45.047,-0.840,1.659,-0.110
45.068,-1.011,1.604,-0.132
45.089,-1.022,1.544,0.033
45.109,-0.972,1.582,0.352
45.13,-0.945,1.631,0.505
45.151,-0.851,1.774,0.786
45.171,-0.747,1.895,0.950
45.192,-0.846,1.978,1.000
45.213,-0.956,1.956,0.895
45.233,-0.994,1.862,0.868
45.254,-1.439,1.763,0.791
45.275,-1.670,1.445,0.731
45.295,-1.785,1.307,0.747
45.316,-2.021,1.181,0.731
45.337,-2.016,1.060,0.681
45.358,-1.917,1.082,0.604
45.378,-1.912,1.121,0.522
45.399,-1.923,1.110,0.225
45.42,-1.868,1.082,0.022
45.44,-2.203,1.055,-0.154
45.461,-2.411,0.862,-0.445
45.482,-2.499,0.807,-0.522
45.502,-2.856,0.731,-0.593
45.523,-2.966,0.599,-0.593
45.544,-2.950,0.588,-0.511
45.564,-3.137,0.571,-0.456
45.585,-3.192,0.456,-0.346
45.606,-3.142,0.417,-0.231
45.627,-3.296,0.385,-0.170
45.647,-3.290,0.269,-0.121
45.668,-3.181,0.253,-0.104
45.689,-3.367,0.253,-0.104
45.709,-3.532,0.214,-0.181
45.73,-3.615,0.242,-0.198
45.751,-3.906,0.258,-0.236
45.771,-3.823,0.258,-0.335
45.792,-3.549,0.297,-0.357
45.813,-2.994,0.341,-0.368
45.833,-2.637,0.368,-0.456
45.854,-2.170,0.379,-0.511
45.875,-2.170,0.374,-0.544
45.896,-2.346,0.313,-0.742
45.916,-2.461,0.286,-0.824
45.937,-2.895,0.247,-0.906
45.958,-2.928,0.148,-1.126
45.978,-2.758,0.126,-1.236
45.999,-2.170,0.088,-1.313
46.02,-1.752,0.027,-1.467
46.04,-1.132,0.049,-1.423
46.061,-0.780,0.071,-1.340
46.082,-0.851,0.148,-1.099
46.102,-0.917,0.220,-0.851
46.123,-1.390,0.346,-0.566
46.144,-1.522,0.456,-0.258
46.165,-1.472,0.505,-0.099
46.185,-0.945,0.588,0.038
46.206,-0.632,0.555,-0.005
46.227,-0.049,0.522,0.011
46.247,0.286,0.478,0.033
46.268,0.198,0.374,0.066
46.289,0.099,0.341,0.148
46.309,-0.456,0.363,0.247
46.33,-0.736,0.445,0.209
46.351,-0.945,0.478,0.137
46.371,-0.890,0.648,0.016
46.392,-0.824,0.742,-0.379
46.413,-0.439,0.742,-0.593
46.434,-0.121,0.807,-0.840
46.454,-0.148,0.747,-1.049
46.475,-0.104,0.703,-1.044
46.496,-0.505,0.703,-0.950
46.516,-0.731,0.725,-0.731
46.537,-0.879,0.709,-0.593
46.558,-0.764,0.851,-0.385
46.578,-0.709,0.890,-0.170
46.599,-0.187,0.868,-0.027
46.62,0.269,0.906,0.198
46.64,0.291,0.802,0.483
46.661,0.522,0.736,0.632
46.682,0.313,0.753,0.901
46.703,0.099,0.807,1.137
46.723,-0.033,0.775,1.208
46.744,-0.038,1.005,1.368
46.765,-0.099,1.110,1.406
46.785,0.313,1.093,1.390
46.806,0.654,1.154,1.395
46.827,0.604,1.022,1.247
46.847,0.775,0.950,1.154
46.868,0.500,0.895,1.033
46.889,0.275,0.890,0.851
46.909,0.143,0.846,0.769
46.93,0.231,1.077,0.742
46.951,0.143,1.247,0.731
46.972,0.670,1.252,0.714
46.992,0.978,1.401,0.862
47.013,0.901,1.329,0.956
47.034,0.868,1.291,0.950
47.054,0.401,1.225,1.104
47.075,0.126,1.203,1.132
47.096,-0.181,1.203,1.088
47.116,-0.093,1.329,1.159
47.137,-0.192,1.395,1.082
47.158,0.368,1.417,0.994
47.178,0.714,1.428,0.917
47.199,0.676,1.346,0.654
47.22,0.703,1.324,0.505
47.241,0.390,1.313,0.209
47.261,0.198,1.406,-0.220
47.282,-0.038,1.423,-0.401
47.303,0.005,1.670,-0.747
47.323,-0.088,1.813,-1.055
47.344,0.253,1.851,-1.176
47.365,0.478,1.884,-1.285
47.385,0.450,1.796,-1.368
47.406,0.456,1.769,-1.434
47.427,0.297,1.758,-1.346
47.447,0.187,1.857,-1.318
47.468,0.066,1.879,-1.357
47.489,0.198,2.104,-1.318
47.51,0.165,2.170,-1.412
47.53,0.428,2.175,-1.467
47.551,0.560,2.071,-1.582
47.572,0.511,1.895,-1.681
47.592,0.319,1.818,-1.714
47.613,0.137,1.774,-1.670
47.634,-0.011,1.851,-1.664
47.654,-0.225,1.862,-1.675
47.675,-0.368,2.016,-1.736
47.696,-0.505,2.005,-1.978
47.716,-0.483,1.972,-2.054
47.737,0.000,1.769,-2.406
47.758,0.038,1.555,-2.615
47.779,0.923,1.450,-2.681
47.799,1.533,1.357,-2.648
47.82,1.599,1.412,-2.483
47.841,1.511,1.406,-2.461
47.861,1.049,1.522,-2.258
47.882,0.786,1.527,-2.159
47.903,0.181,1.505,-2.159
47.923,0.170,1.373,-2.032
47.944,0.060,1.302,-1.807
47.965,0.472,1.236,-1.769
47.985,1.071,1.302,-1.428
48.006,1.159,1.511,-1.357
48.027,1.467,1.549,-1.362
48.048,1.417,1.818,-1.467
48.068,1.263,1.862,-1.362
48.089,0.807,1.829,-1.362
48.11,0.720,1.588,-0.709
48.13,0.566,1.324,0.242
48.151,0.786,1.170,0.516
48.172,1.219,0.961,1.807
48.192,1.252,0.928,2.488
48.213,1.412,0.868,2.664
48.234,1.412,0.840,2.774
48.254,1.274,0.747,2.741
48.275,0.917,0.676,2.681
48.296,0.736,0.489,2.873
48.317,0.538,0.439,3.181
48.337,0.302,0.401,3.246
48.358,0.335,0.577,3.411
48.379,0.220,0.857,3.214
48.399,0.038,0.939,3.076
48.42,-0.165,1.192,2.302
48.441,-0.368,1.165,1.637
48.461,-0.890,1.126,1.340
48.482,-1.088,0.829,0.906
48.503,-1.269,0.571,0.939
48.523,-1.335,0.434,0.901
48.544,-1.176,0.297,1.066
48.565,-1.192,0.352,1.044
48.586,-1.181,0.363,0.972
48.606,-1.104,0.494,0.676
48.627,-1.143,0.511,0.533
48.648,-1.110,0.494,0.439
48.668,-0.950,0.319,0.687
48.689,-0.934,0.181,1.203
48.71,-0.912,0.099,1.373
48.73,-0.912,0.038,2.082
48.751,-0.967,0.154,2.455
48.772,-1.198,0.181,2.576
48.792,-1.274,0.330,2.692
48.813,-1.357,0.396,2.587
48.834,-1.478,0.379,2.510
48.855,-1.329,0.220,2.164
48.875,-1.302,0.104,1.807
48.896,-1.187,0.033,1.631
48.917,-1.071,0.000,1.066
48.937,-1.071,0.170,0.560
48.958,-1.346,0.225,0.319
48.979,-1.527,0.417,-0.363
48.999,-1.670,0.522,-0.807
49.02,-2.000,0.533,-1.027
49.041,-1.939,0.445,-1.412
49.061,-1.956,0.456,-1.511
49.082,-1.862,0.406,-1.582
49.103,-1.609,0.401,-1.566
49.124,-1.527,0.538,-1.560
49.144,-1.522,0.560,-1.599
49.165,-1.423,0.604,-1.868
49.186,-1.439,0.659,-2.060
49.206,-1.615,0.626,-2.186
49.227,-1.549,0.500,-2.263
49.248,-1.566,0.522,-1.978
49.268,-1.703,0.494,-1.868
49.289,-1.642,0.505,-1.280
49.31,-1.670,0.632,-0.764
49.33,-1.901,0.659,-0.555
49.351,-1.818,0.626,-0.324
49.372,-1.835,0.643,-0.302
49.393,-1.868,0.604,-0.363
49.413,-1.593,0.478,-0.747
49.434,-1.505,0.604,-0.912
49.455,-1.368,0.632,-1.044
49.475,-1.071,0.818,-1.137
49.496,-0.972,1.077,-0.989
49.517,-1.000,1.176,-0.961
49.537,-0.813,1.296,-1.060
49.558,-0.769,1.351,-1.208
49.579,-0.764,1.335,-1.379
49.599,-0.478,1.258,-2.027
49.62,-0.363,1.302,-2.373
49.641,-0.236,1.285,-2.631
49.662,0.011,1.428,-3.005
49.682,0.115,1.593,-2.950
49.703,0.022,1.675,-2.961
49.724,0.126,1.857,-2.840
49.744,0.137,1.934,-2.697
49.765,-0.005,1.950,-2.664
49.786,-0.033,1.928,-2.774
49.806,-0.077,1.967,-2.763
49.827,-0.341,1.961,-2.807
49.848,-0.253,2.060,-2.637
49.868,-0.181,2.153,-2.263
49.889,0.126,2.208,-2.038
49.91,0.478,2.208,-1.346
49.931,0.720,2.142,-0.851
49.951,0.802,2.071,-0.560
49.972,0.714,1.890,-0.187
49.993,0.643,1.851,-0.055
50.013,0.275,1.829,-0.011
50.034,0.187,1.945,-0.148
50.055,0.181,2.098,-0.308
50.075,0.264,2.181,-0.450
50.096,0.489,2.247,-0.692
50.117,0.703,2.214,-0.599
50.137,0.835,2.153,-0.505
50.158,0.791,1.983,0.022
50.179,0.775,1.967,0.505
50.2,0.346,1.950,0.851
50.22,0.126,2.038,1.445
50.241,0.016,2.153,1.769
50.262,-0.143,2.230,1.967
50.282,-0.038,2.203,2.181
50.303,0.121,2.131,2.422
50.324,0.231,2.054,2.598
50.344,0.286,1.824,3.043
50.365,0.390,1.758,3.290
50.386,0.121,1.686,3.477
50.406,-0.115,1.593,3.384
50.427,-0.253,1.571,3.214
50.448,-0.714,1.555,3.032
50.469,-0.818,1.428,2.472
50.489,-0.807,1.395,2.153
50.51,-0.758,1.362,1.868
50.531,-0.643,1.285,1.373
50.551,-0.450,1.285,1.121
50.572,-0.571,1.280,0.928
50.593,-0.709,1.176,0.577
50.613,-0.747,1.121,0.489
50.634,-1.082,1.055,0.439
50.655,-1.154,0.824,0.544
50.675,-1.082,0.731,0.797
50.696,-1.044,0.643,1.066
50.717,-0.890,0.456,1.527
50.738,-0.610,0.406,1.791
50.758,-0.560,0.346,2.060
50.779,-0.621,0.203,2.247
50.8,-0.599,0.159,2.406
50.82,-0.939,0.093,2.587
50.841,-1.027,0.005,2.895
50.862,-0.978,-0.011,3.060
50.882,-0.895,-0.011,3.235
50.903,-0.742,-0.011,2.950
50.924,-0.423,0.005,2.571
50.944,-0.286,0.011,2.126
50.965,-0.264,-0.049,1.192
50.986,-0.148,-0.055,0.807
51.007,-0.297,-0.088,0.445
51.027,-0.363,-0.115,0.165
51.048,-0.324,-0.115,0.077
51.069,-0.352,-0.104,-0.016
51.089,-0.335,-0.126,-0.374
51.11,-0.181,-0.115,-0.610
51.131,-0.192,-0.093,-0.928
51.151,-0.275,-0.049,-1.192
51.172,-0.291,-0.027,-1.159
51.193,-0.494,0.038,-1.038
51.213,-0.549,0.033,-0.731
51.234,-0.489,0.016,-0.637
51.255,-0.280,-0.005,-0.527
51.276,-0.181,-0.066,-0.731
51.296,0.099,-0.082,-0.879
51.317,0.192,-0.027,-1.093
51.338,0.110,0.093,-1.214
51.358,0.099,0.143,-1.154
51.379,-0.011,0.286,-0.945
51.4,-0.066,0.291,-0.648
51.42,0.099,0.264,-0.604
51.441,0.313,0.209,-0.533
51.462,0.324,0.088,-0.895
51.482,0.544,0.044,-1.104
51.503,0.538,0.104,-1.417
51.524,0.423,0.231,-1.555
51.545,0.439,0.247,-1.555
51.565,0.412,0.450,-1.285
51.586,0.330,0.494,-1.011
51.607,0.505,0.467,-1.000
51.627,0.571,0.483,-0.967
51.648,0.467,0.423,-1.373
51.669,0.533,0.374,-1.593
51.689,0.406,0.527,-2.032
51.71,0.247,0.731,-2.373
51.731,0.286,0.736,-2.477
51.751,0.368,1.027,-2.401
51.772,0.297,1.104,-2.225
51.793,0.604,1.071,-2.230
51.814,0.731,1.093,-2.082
51.834,0.632,1.022,-2.230
51.855,0.703,0.967,-2.340
51.876,0.599,1.077,-2.455
51.896,0.434,1.203,-2.411
51.917,0.527,1.203,-2.428
51.938,0.621,1.428,-1.906
51.958,0.527,1.478,-1.439
51.979,0.797,1.461,-1.390
52.0,0.797,1.538,-1.082
52.02,0.637,1.588,-1.379
52.041,0.588,1.571,-1.533
52.062,0.483,1.846,-2.340
52.083,0.313,2.065,-3.126
52.103,0.423,2.104,-3.362
52.124,0.511,2.302,-3.384
52.145,0.396,2.329,-2.769
52.165,0.472,2.313,-2.637
52.186,0.335,2.346,-1.533
52.207,0.165,2.368,-0.851
52.227,0.027,2.373,-0.720
52.248,-0.022,2.543,-0.445
52.269,-0.159,2.670,-0.445
52.289,0.082,2.697,-0.450
52.31,0.247,2.807,0.066
52.331,0.203,2.807,1.022
52.352,0.313,2.812,1.258
52.372,0.280,2.856,2.329
52.393,0.176,2.906,2.461
52.414,0.104,2.917,2.477
52.434,0.132,3.049,1.620
52.455,0.060,3.093,0.549
52.476,0.126,3.087,0.231
52.496,0.110,3.049,-0.637
52.517,0.022,2.933,-0.742
52.538,-0.181,2.895,-0.775
52.558,-0.308,2.785,-0.368
52.579,-0.412,2.730,-0.242
52.6,-0.417,2.708,-0.214
52.621,-0.247,2.747,-0.632
52.641,-0.291,2.741,-1.148
52.662,-0.093,2.730,-1.324
52.683,0.033,2.681,-1.423
52.703,-0.016,2.560,-0.912
52.724,-0.005,2.505,-0.775
52.745,0.104,2.324,0.225
52.765,0.044,2.170,0.868
52.786,0.209,2.104,1.033
52.807,0.428,1.967,1.340
52.827,0.390,1.851,1.461
52.848,0.527,1.780,1.461
52.869,0.637,1.593,1.730
52.89,0.560,1.406,1.989
52.91,0.588,1.302,2.027
52.931,0.681,1.066,1.978
52.952,0.593,0.912,1.461
52.972,0.555,0.818,1.241
52.993,0.483,0.731,0.165
53.014,0.357,0.692,-0.577
53.034,0.071,0.654,-0.857
53.055,-0.011,0.577,-1.071
53.076,-0.159,0.483,-0.764
53.096,-0.143,0.406,-0.709
53.117,0.077,0.264,-0.264
53.138,0.022,0.209,-0.088
53.159,0.110,0.137,-0.093
53.179,0.187,0.137,-0.165
53.2,0.088,0.165,-0.137
53.221,0.044,0.110,-0.165
53.241,0.192,0.126,0.165
53.262,0.093,0.115,0.670
53.283,0.214,0.066,0.797
53.303,0.324,-0.011,1.302
53.324,0.220,-0.055,1.428
53.345,-0.027,-0.110,1.417
53.365,-0.187,-0.132,1.192
53.386,-0.379,-0.154,1.055
53.407,-0.670,-0.203,0.967
53.428,-0.643,-0.291,1.016
53.448,-0.769,-0.379,1.088
53.469,-0.742,-0.445,1.099
53.49,-0.637,-0.500,0.879
53.51,-0.720,-0.467,0.396
53.531,-0.862,-0.472,0.159
53.552,-0.928,-0.302,-0.736
53.572,-1.077,-0.165,-1.302
53.593,-1.225,-0.148,-1.566
53.614,-1.115,-0.060,-1.813
53.634,-1.176,-0.071,-1.725
53.655,-1.104,-0.104,-1.703
53.676,-0.967,-0.192,-1.538
53.697,-1.033,-0.253,-1.505
53.717,-1.115,-0.302,-1.527
53.738,-1.066,-0.313,-1.692
53.759,-1.148,-0.264,-1.763
53.779,-1.110,-0.286,-1.813
53.8,-0.928,-0.242,-1.774
53.821,-0.934,-0.209,-1.555
53.841,-0.906,-0.225,-1.489
53.862,-0.890,-0.225,-1.165
53.883,-0.956,-0.203,-0.912
53.903,-1.252,-0.209,-0.840
53.924,-1.368,-0.214,-0.851
53.945,-1.472,-0.170,-0.934
53.966,-1.582,-0.192,-1.027
53.986,-1.357,-0.192,-1.208
54.007,-1.313,-0.148,-1.066
54.028,-1.060,-0.159,-1.027
54.048,-0.829,-0.165,-0.720
54.069,-0.769,-0.115,-0.439
54.09,-0.868,-0.132,-0.335
54.11,-0.906,-0.154,-0.363
54.131,-0.978,-0.115,-0.483
54.152,-1.148,-0.143,-0.604
54.172,-1.011,-0.159,-1.082
54.193,-0.994,-0.088,-1.225
54.214,-0.912,-0.082,-1.346
54.235,-0.742,-0.016,-1.203
54.255,-0.720,0.143,-0.720
54.276,-0.879,0.187,-0.483
54.297,-0.873,0.302,0.126
54.317,-0.923,0.467,0.615
54.338,-1.104,0.489,0.829
54.359,-1.000,0.511,1.082
54.379,-0.989,0.604,1.291
54.4,-1.038,0.599,1.346
54.421,-0.912,0.626,1.406
54.441,-0.912,0.764,1.555
54.462,-1.071,0.802,1.593
54.483,-0.967,0.851,1.571
54.504,-0.967,0.983,1.505
54.524,-1.000,1.005,1.412
54.545,-0.720,1.016,1.115
54.566,-0.632,1.148,0.945
54.586,-0.549,1.159,0.797
54.607,-0.313,1.236,0.494
54.628,-0.247,1.406,0.319
54.648,-0.363,1.461,0.187
54.669,-0.231,1.555,-0.027
54.69,-0.220,1.686,-0.088
54.71,-0.319,1.692,-0.148
54.731,-0.209,1.664,-0.231
54.752,-0.181,1.659,-0.269
54.773,-0.319,1.615,-0.308
54.793,-0.198,1.505,-0.341
54.814,-0.165,1.461,-0.258
54.835,-0.203,1.406,-0.203
54.855,-0.022,1.362,0.060
54.876,0.071,1.362,0.335
54.897,0.121,1.340,0.533
54.917,0.236,1.302,0.934
54.938,0.302,1.285,1.165
54.959,0.231,1.247,1.313
54.979,0.242,1.154,1.307
55.0,0.247,1.121,1.198
55.021,0.176,1.060,1.071
55.042,0.258,1.022,0.731
55.062,0.374,1.038,0.577
55.083,0.555,1.022,0.445
55.104,0.736,0.972,0.181
55.124,0.895,0.923,0.011
55.145,0.835,0.851,-0.115
55.166,0.747,0.643,-0.390
55.186,0.709,0.555,-0.467
55.207,0.423,0.450,-0.505
55.228,0.401,0.417,-0.456
55.248,0.450,0.489,-0.291
55.269,0.588,0.544,-0.115
55.29,0.764,0.494,0.132
55.311,0.945,0.341,0.236
55.331,0.879,0.165,0.319
55.352,0.753,-0.253,0.110
55.373,0.687,-0.379,-0.011
55.393,0.302,-0.500,-0.148
55.414,0.258,-0.544,-0.302
55.435,0.335,-0.522,-0.253
55.455,0.610,-0.522,-0.165
55.476,0.917,-0.753,-0.082
55.497,1.258,-0.895,-0.077
55.517,1.335,-1.044,-0.077
55.538,1.219,-1.110,-0.330
55.559,1.187,-0.917,-0.456
55.58,0.709,-0.709,-0.599
55.6,0.593,-0.198,-0.731
55.621,0.632,0.099,-0.709
55.642,0.807,0.352,-0.626
55.662,1.033,0.302,-0.599
55.683,1.379,0.154,-0.659
55.704,1.401,-0.005,-0.758
55.724,1.291,-0.275,-1.203
55.745,1.258,-0.242,-1.505
55.766,0.851,-0.165,-1.917
55.786,0.791,0.132,-2.510
55.807,0.906,0.324,-2.747
55.828,1.170,0.527,-2.994
55.849,1.406,0.472,-3.120
55.869,1.774,0.368,-3.087
55.89,1.780,0.236,-2.944
55.911,1.664,0.071,-2.648
55.931,1.637,0.143,-2.461
55.952,1.307,0.280,-2.109
55.973,1.258,0.687,-1.785
55.993,1.379,0.956,-1.631
56.014,1.609,1.230,-1.346
56.035,1.741,1.285,-1.044
56.055,2.010,1.219,-0.890
56.076,1.862,1.049,-0.544
56.097,1.681,0.758,-0.291
56.118,1.522,0.709,-0.242
56.138,1.159,0.687,-0.099
56.159,1.044,0.923,-0.170
56.18,1.088,1.088,-0.242
56.2,1.241,1.346,-0.302
56.221,1.291,1.472,-0.390
56.242,1.461,1.489,-0.428
56.262,1.335,1.456,-0.291
56.283,1.170,1.368,-0.137
56.304,1.044,1.390,-0.115
56.324,0.780,1.467,0.110
56.345,0.670,1.637,0.198
56.366,0.736,1.730,0.176
56.387,0.884,1.879,0.352
56.407,0.890,1.868,0.527
56.428,1.055,1.813,0.538
56.449,0.978,1.692,0.950
56.469,0.818,1.500,1.241
56.49,0.731,1.461,1.247
56.511,0.494,1.500,1.489
56.531,0.346,1.648,1.478
56.552,0.352,1.703,1.417
56.573,0.346,1.829,1.445
56.593,0.258,1.703,1.417
56.614,0.319,1.588,1.362
56.635,0.143,1.351,1.445
56.656,-0.049,1.066,1.346
56.676,-0.187,0.983,1.269
56.697,-0.439,1.005,1.066
56.718,-0.615,1.132,0.692
56.738,-0.588,1.159,0.549
56.759,-0.549,1.324,0.236
56.78,-0.648,1.241,0.049
56.8,-0.467,1.165,-0.038
56.821,-0.511,1.016,0.044
56.842,-0.654,0.835,0.115
56.862,-0.637,0.742,0.110
56.883,-0.731,0.813,0.214
56.904,-0.901,0.906,0.176
56.925,-0.873,0.890,0.148
56.945,-1.016,1.038,0.038
56.966,-1.192,0.928,-0.110
56.987,-1.137,0.846,-0.165
57.007,-1.005,0.709,-0.313
57.028,-1.082,0.577,-0.428
57.049,-0.648,0.500,-0.467
57.069,-0.445,0.648,-0.549
57.09,-0.549,0.780,-0.593
57.111,-0.527,0.764,-0.615
57.131,-0.797,0.846,-0.533
57.152,-1.027,0.604,-0.461
57.173,-1.154,0.505,-0.456
57.194,-1.115,0.214,-0.467
57.214,-1.236,0.027,-0.676
57.235,-0.802,-0.055,-0.753
57.256,-0.483,0.082,-1.198
57.276,-0.516,0.280,-1.609
57.297,-0.280,0.302,-1.747
57.318,-0.352,0.577,-1.989
57.338,-0.472,0.505,-2.005
57.359,-0.533,0.489,-2.021
57.38,-0.489,0.115,-1.813
57.4,-0.571,-0.297,-1.642
57.421,-0.313,-0.390,-1.620
57.442,-0.115,-0.511,-1.566
57.463,-0.137,-0.385,-1.675
57.483,-0.071,-0.341,-1.741
57.504,-0.093,-0.198,-1.967
57.525,-0.170,-0.357,-2.098
57.545,-0.242,-0.401,-2.175
57.566,-0.313,-0.775,-2.164
57.587,-0.401,-1.005,-2.054
57.607,-0.560,-1.066,-2.071
57.628,-0.637,-0.840,-2.016
57.649,-0.720,-0.401,-2.131
57.669,-0.687,-0.275,-2.214
57.69,-0.472,0.231,-2.516
57.711,-0.494,0.308,-2.686
57.732,-0.308,0.330,-2.791
57.752,-0.192,0.038,-2.708
57.773,-0.269,-0.335,-2.395
57.794,-0.335,-0.445,-2.346
57.814,-0.341,-0.599,-1.884
57.835,-0.456,-0.456,-1.549
57.856,-0.368,-0.417,-1.489
57.876,-0.071,-0.033,-1.247
57.897,-0.071,0.110,-1.027
57.918,0.159,0.126,-1.011
57.938,0.214,-0.071,-0.648
57.959,0.115,-0.396,-0.291
57.98,-0.154,-0.533,-0.209
58.001,-0.275,-0.753,0.077
58.021,-0.439,-0.681,0.115
58.042,-0.450,-0.687,0.060
58.063,-0.198,-0.346,-0.181
58.083,-0.236,-0.110,-0.363
58.104,-0.071,-0.066,-0.478
58.125,0.016,-0.049,-0.516
58.145,-0.082,-0.225,-0.401
58.166,-0.231,-0.319,-0.379
58.187,-0.181,-0.489,-0.165
58.207,-0.308,-0.450,-0.044
58.228,-0.231,-0.456,-0.044
58.249,0.005,-0.170,0.060
58.27,-0.049,0.093,0.225
58.29,-0.033,0.148,0.269
58.311,-0.038,0.319,0.615
58.332,-0.165,0.379,0.956
58.352,-0.341,0.352,1.071
58.373,-0.247,0.450,1.225
58.394,-0.346,0.637,1.099
58.414,-0.181,0.654,1.000
58.435,0.093,0.978,0.577
58.456,0.082,1.236,0.385
58.476,0.099,1.269,0.275
58.497,0.088,1.456,0.401
58.518,-0.038,1.516,0.709
58.539,-0.236,1.505,0.813
58.559,-0.181,1.505,0.994
58.58,-0.236,1.500,0.895
58.601,-0.137,1.439,0.807
58.621,0.093,1.406,0.286
58.642,0.110,1.379,-0.005
58.663,0.220,1.340,-0.170
58.683,0.352,1.340,-0.192
58.704,0.368,1.412,0.143
58.725,0.423,1.412,0.280
58.745,0.610,1.566,0.709
58.766,0.654,1.659,0.912
58.787,0.714,1.675,0.945
58.808,0.846,1.708,0.626
58.828,0.840,1.664,0.346
58.849,0.775,1.626,0.154
58.87,0.873,1.522,-0.192
58.89,0.862,1.406,-0.148
58.911,0.901,1.329,-0.165
58.932,1.104,1.159,-0.060
58.952,1.148,0.983,0.060
58.973,1.198,0.901,0.055
58.994,1.307,0.687,-0.214
59.014,1.307,0.599,-0.406
59.035,1.181,0.538,-0.571
59.056,1.291,0.533,-0.956
59.077,1.302,0.599,-0.967
59.097,1.340,0.610,-1.011
59.118,1.571,0.676,-0.950
59.139,1.642,0.720,-0.736
59.159,1.615,0.703,-0.687
59.18,1.741,0.676,-0.681
59.201,1.741,0.670,-0.626
59.221,1.609,0.621,-0.659
59.242,1.758,0.560,-0.786
59.263,1.780,0.626,-0.731
59.283,1.719,0.621,-0.736
59.304,1.868,0.780,-0.692
59.325,1.901,0.890,-0.560
59.346,1.774,0.906,-0.527
59.366,1.851,0.676,-0.566
59.387,1.835,0.450,-0.604
59.408,1.566,0.286,-0.665
59.428,1.593,-0.049,-0.807
59.449,1.538,-0.099,-0.807
59.47,1.335,-0.159,-0.851
59.49,1.450,-0.291,-0.846
59.511,1.456,-0.406,-0.857
59.532,1.313,-0.527,-0.895
59.552,1.428,-0.895,-1.110
59.573,1.417,-0.945,-1.280
59.594,1.241,-1.011,-1.406
59.615,1.302,-0.797,-1.599
59.635,1.296,-0.357,-1.555
59.656,1.093,-0.143,-1.516
59.677,1.104,0.170,-1.291
59.697,1.082,0.220,-1.082
59.718,0.829,0.159,-0.934
59.739,0.818,-0.352,-0.813
59.759,0.802,-0.632,-0.764
59.78,0.632,-0.851,-0.747
59.801,0.637,-1.011,-0.742
59.821,0.632,-0.786,-0.615
59.842,0.445,-0.676,-0.522
59.863,0.379,-0.379,-0.341
59.884,0.346,-0.286,-0.236
59.904,0.055,-0.291,-0.159
59.925,-0.082,-0.560,-0.324
59.946,-0.154,-0.692,-0.472
59.966,-0.374,-0.807,-0.621
59.987,-0.390,-0.758,-0.862
60.008,-0.363,-0.577,-0.857
60.028,-0.423,-0.467,-0.829
60.049,-0.434,-0.297,-0.665
60.07,-0.412,-0.330,-0.489
60.09,-0.604,-0.396,-0.341
60.111,-0.681,-0.665,-0.335
60.132,-0.714,-0.775,-0.368
60.153,-0.906,-0.868,-0.417
60.173,-0.939,-0.714,-0.621
60.194,-0.884,-0.456,-0.659
60.215,-0.978,-0.297,-0.676
60.235,-0.994,0.005,-0.643
60.256,-0.950,0.115,-0.522
60.277,-1.132,0.143,-0.379
60.297,-1.203,0.110,-0.247
60.318,-1.198,0.148,-0.187
60.339,-1.373,0.165,-0.115
60.359,-1.362,0.341,-0.225
60.38,-1.258,0.461,-0.286
60.401,-1.241,0.538,-0.357
60.422,-1.159,0.560,-0.522
60.442,-1.016,0.538,-0.566
60.463,-1.121,0.489,-0.588
60.484,-1.181,0.450,-0.665
60.504,-1.148,0.538,-0.703
60.525,-1.362,0.615,-0.747
60.546,-1.390,0.857,-0.956
60.566,-1.285,1.044,-1.022
60.587,-1.274,1.170,-1.115
60.608,-1.181,1.236,-1.132
60.628,-0.989,1.225,-1.071
60.649,-1.005,1.198,-0.956
60.67,-1.027,1.137,-0.840
60.691,-0.912,1.219,-0.840
60.711,-1.022,1.285,-0.840
60.732,-1.000,1.566,-1.115
60.753,-0.846,1.818,-1.313
60.773,-0.829,2.032,-1.582
60.794,-0.786,2.280,-1.967
60.815,-0.637,2.373,-2.076
60.835,-0.709,2.406,-2.148
60.856,-0.747,2.258,-2.054
60.877,-0.665,2.148,-1.945
60.897,-0.659,2.043,-1.686
60.918,-0.604,1.895,-1.412
60.939,-0.385,1.923,-1.318
60.96,-0.280,1.972,-1.132
60.98,-0.253,2.082,-1.016
61.001,-0.121,2.186,-0.983
61.022,-0.176,2.291,-0.824
61.042,-0.220,2.291,-0.665
61.063,-0.148,2.296,-0.615
61.084,-0.104,2.307,-0.417
61.104,-0.104,2.252,-0.352
61.125,0.055,2.269,-0.374
61.146,0.126,2.302,-0.324
61.166,0.099,2.230,-0.423
61.187,0.176,2.153,-0.494
61.208,0.143,2.038,-0.505
61.229,0.088,1.664,-0.632
61.249,0.148,1.472,-0.731
61.27,0.154,1.252,-0.890
61.291,0.099,1.027,-1.187
61.311,0.187,1.016,-1.329
61.332,0.154,1.038,-1.390
61.353,0.055,1.060,-1.214
61.373,0.110,1.066,-1.181
61.394,0.104,1.055,-0.544
61.415,0.044,0.961,0.148
61.435,0.203,0.972,0.258
61.456,0.280,0.972,0.884
61.477,0.181,0.956,1.027
61.498,0.269,0.912,0.994
61.518,0.148,0.829,1.027
61.539,-0.027,0.610,1.016
61.56,-0.060,0.522,0.956
61.58,-0.143,0.401,1.181
61.601,-0.264,0.297,1.313
61.622,-0.165,0.236,1.291
61.642,-0.181,0.181,1.302
61.663,-0.330,-0.033,0.945
61.684,-0.319,-0.170,0.802
61.704,-0.489,-0.363,0.286
61.725,-0.687,-0.494,-0.082
61.746,-0.714,-0.472,-0.214
61.767,-0.802,-0.280,-0.192
61.787,-0.950,0.082,-0.044
61.808,-0.824,0.209,-0.027
61.829,-0.780,0.478,0.148
61.849,-0.912,0.406,0.088
61.87,-0.807,0.291,0.049
61.891,-0.884,0.011,-0.077
61.911,-1.049,-0.324,-0.126
61.932,-1.049,-0.401,-0.154
61.953,-1.104,-0.313,0.104
61.973,-1.263,-0.005,0.472
61.994,-1.159,0.060,0.577
62.015,-1.148,0.390,1.104
62.036,-1.280,0.330,1.417
62.056,-1.208,0.231,1.467
62.077,-1.285,-0.055,1.571
62.098,-1.434,-0.379,1.417
62.118,-1.566,-0.494,1.346
62.139,-1.708,-0.423,1.071
62.16,-1.857,-0.159,0.791
62.18,-1.763,-0.115,0.687
62.201,-1.588,0.253,0.406
62.222,-1.637,0.231,0.181
62.242,-1.412,0.154,0.093
62.263,-1.467,-0.148,-0.077
62.284,-1.566,-0.555,-0.154
62.305,-1.879,-0.676,-0.198
62.325,-2.137,-0.742,-0.154
62.346,-2.274,-0.610,-0.099
62.367,-2.362,-0.610,-0.104
62.387,-2.208,-0.258,-0.027
62.408,-2.241,-0.154,0.011
62.429,-1.989,-0.159,-0.011
62.449,-1.851,-0.198,0.044
62.47,-1.901,-0.297,0.170
62.491,-2.054,-0.341,0.170
62.511,-2.192,-0.209,0.439
62.532,-2.324,0.022,0.676
62.553,-2.428,0.088,0.720
62.574,-2.241,0.412,0.923
62.594,-2.269,0.461,0.961
62.615,-1.912,0.478,0.923
62.636,-1.642,0.264,0.747
62.656,-1.670,0.005,0.516
62.677,-1.697,-0.071,0.379
62.698,-1.785,-0.148,0.071
62.718,-1.928,-0.033,-0.110
62.739,-2.093,0.005,-0.220
62.76,-2.005,0.258,-0.396
62.78,-2.082,0.291,-0.544
62.801,-1.818,0.291,-0.654
62.822,-1.478,0.126,-0.890
62.843,-1.483,0.022,-1.011
62.863,-1.280,-0.011,-1.121
62.884,-1.165,0.236,-1.225
62.905,-1.247,0.687,-1.241
62.925,-1.247,0.813,-1.318
62.946,-1.038,1.401,-1.401
62.967,-1.082,1.599,-1.439
62.987,-0.736,1.653,-1.505
63.008,-0.341,1.472,-1.522
63.029,-0.335,1.219,-1.467
63.049,-0.148,1.126,-1.489
63.07,-0.060,1.082,-1.362
63.091,-0.176,1.291,-1.247
63.112,-0.335,1.346,-1.247
63.132,-0.308,1.741,-1.159
63.153,-0.428,1.873,-1.093
63.174,-0.368,1.879,-1.110
63.194,-0.137,1.697,-0.983
63.215,-0.192,1.489,-0.797
63.236,-0.104,1.395,-0.764
63.256,0.038,1.406,-0.555
63.277,-0.049,1.615,-0.456
63.298,-0.071,1.670,-0.450
63.318,0.104,1.928,-0.522
63.339,0.044,1.901,-0.665
63.36,0.198,1.851,-0.758
63.381,0.461,1.511,-0.978
63.401,0.434,1.252,-1.038
63.422,0.538,1.137,-1.093
63.443,0.714,1.126,-1.060
63.463,0.648,1.313,-0.923
63.484,0.676,1.335,-0.895
63.505,0.802,1.516,-0.753
63.525,0.764,1.472,-0.643
63.546,0.786,1.395,-0.643
63.567,0.901,1.110,-0.582
63.587,0.857,0.945,-0.461
63.608,0.846,0.846,-0.439
63.629,0.917,0.917,-0.313
63.65,0.895,1.126,-0.137
63.67,0.851,1.154,-0.099
63.691,0.912,1.307,0.016
63.712,0.884,1.241,0.093
63.732,0.791,1.159,0.093
63.753,0.802,0.884,-0.104
63.774,0.758,0.725,-0.280
63.794,0.659,0.632,-0.417
63.815,0.731,0.703,-0.753
63.836,0.714,0.873,-0.786
63.856,0.643,0.906,-0.840
63.877,0.676,1.044,-0.780
63.898,0.632,0.978,-0.538
63.919,0.412,0.917,-0.472
63.939,0.363,0.670,-0.330
63.96,0.291,0.538,-0.187
63.981,0.060,0.450,-0.159
64.001,0.033,0.560,-0.137
64.022,-0.033,0.780,0.088
64.043,-0.302,0.857,0.154
64.063,-0.341,1.115,0.363
64.084,-0.412,1.148,0.604
64.105,-0.632,1.121,0.676
64.125,-0.797,0.846,0.643
64.146,-0.934,0.604,0.610
64.167,-1.439,0.483,0.516
64.188,-1.357,0.319,0.192
64.208,-1.357,0.324,0.148
64.229,-0.901,0.324,0.060
64.25,-0.286,0.439,0.022
64.27,-0.038,0.505,0.110
64.291,-0.033,0.500,0.121
64.312,-0.302,0.472,0.044
64.332,-0.522,0.516,0.005
64.353,-1.379,0.494,-0.071
64.374,-1.494,0.676,-0.181
64.394,-1.582,0.917,-0.088
64.415,-1.285,0.994,-0.055
64.436,-0.654,1.176,0.154
64.457,-0.357,1.176,0.324
64.477,-0.126,1.137,0.412
64.498,-0.132,0.901,0.396
64.519,-0.214,0.807,0.313
64.539,-1.011,0.742,0.214
64.56,-1.176,0.786,0.027
64.581,-1.313,1.011,-0.011
64.601,-1.115,1.077,-0.038
64.622,-0.489,1.203,0.044
64.643,-0.143,1.214,0.143
64.663,0.275,1.176,0.187
64.684,0.456,0.950,0.110
64.705,0.467,0.934,-0.005
64.726,-0.033,0.895,-0.115
64.746,-0.159,1.011,-0.390
64.767,-0.280,1.252,-0.500
64.788,-0.456,1.335,-0.588
64.808,-0.275,1.417,-0.698
64.829,-0.187,1.434,-0.731
64.85,-0.104,1.373,-0.769
64.87,0.049,1.159,-0.939
64.891,0.104,1.198,-1.000
64.912,-0.148,1.159,-1.071
64.932,-0.236,1.307,-1.099
64.953,-0.297,1.533,-0.994
64.974,-0.511,1.609,-0.901
64.995,-0.450,1.615,-0.714
65.015,-0.406,1.560,-0.577
65.036,-0.297,1.456,-0.494
65.057,-0.121,1.176,-0.489
65.077,0.027,1.198,-0.500
65.098,0.082,1.143,-0.522
65.119,0.099,1.302,-0.687
65.139,0.132,1.560,-0.742
65.16,-0.143,1.653,-0.791
65.181,-0.275,1.752,-0.934
65.201,-0.324,1.763,-0.983
65.222,-0.434,1.719,-1.016
65.243,-0.357,1.566,-1.154
65.264,-0.247,1.588,-1.170
65.284,-0.264,1.577,-1.170
65.305,-0.297,1.774,-1.208
65.326,-0.291,1.961,-1.148
65.346,-0.604,2.054,-1.071
65.367,-0.742,2.076,-0.994
65.388,-0.775,1.994,-0.901
65.408,-0.829,1.906,-0.786
65.429,-0.753,1.703,-0.709
65.45,-0.610,1.681,-0.621
65.47,-0.687,1.653,-0.516
65.491,-0.780,1.769,-0.390
65.512,-0.818,1.890,-0.242
65.533,-1.198,1.939,-0.049
65.553,-1.269,1.912,0.192
65.574,-1.230,1.835,0.352
65.595,-1.093,1.730,0.522
65.615,-0.868,1.566,0.599
65.636,-0.577,1.560,0.632
65.657,-0.500,1.555,0.659
65.677,-0.577,1.670,0.626
65.698,-0.593,1.769,0.643
65.719,-1.170,1.818,0.681
65.739,-1.461,1.752,0.731
65.76,-1.626,1.626,0.753
65.781,-1.895,1.494,0.802
65.802,-1.862,1.208,0.703
65.822,-1.703,1.148,0.626
65.843,-1.642,1.099,0.527
65.864,-1.675,1.176,0.335
65.884,-1.620,1.269,0.269
65.905,-2.087,1.340,0.220
65.926,-2.313,1.225,0.148
65.946,-2.406,1.082,0.099
65.967,-2.582,0.934,0.055
65.988,-2.560,0.604,-0.159
66.008,-2.395,0.533,-0.297
66.029,-2.521,0.467,-0.439
66.05,-2.692,0.483,-0.621
66.071,-2.807,0.516,-0.648
66.091,-3.362,0.538,-0.593
66.112,-3.576,0.341,-0.450
66.133,-3.636,0.187,-0.390
66.153,-3.466,0.022,-0.231
66.174,-3.334,-0.203,-0.220
66.195,-3.054,-0.170,-0.264
66.215,-3.257,-0.110,-0.324
66.236,-3.466,0.104,-0.478
66.257,-3.636,0.275,-0.538
66.277,-3.790,0.439,-0.549
66.298,-3.653,0.472,-0.505
66.319,-3.241,0.445,-0.505
66.34,-2.521,0.406,-0.390
66.36,-2.296,0.242,-0.439
66.381,-1.956,0.236,-0.522
66.402,-2.203,0.242,-0.648
66.422,-2.450,0.275,-0.928
66.443,-2.741,0.319,-1.066
66.464,-2.961,0.357,-1.208
66.484,-2.884,0.198,-1.384
66.505,-2.455,0.099,-1.461
66.526,-1.549,-0.027,-1.434
66.546,-1.219,-0.143,-1.379
66.567,-0.582,-0.077,-1.412
66.588,-0.654,0.022,-1.099
66.609,-0.912,0.291,-0.797
66.629,-1.313,0.445,-0.747
66.65,-1.774,0.615,-0.291
66.671,-1.868,0.621,-0.066
66.691,-1.500,0.582,-0.060
66.712,-0.599,0.494,0.071
66.733,-0.324,0.368,0.033
66.753,0.461,0.363,-0.038
66.774,0.560,0.385,0.027
66.795,0.335,0.511,0.044
66.815,-0.121,0.599,-0.005
66.836,-0.978,0.720,0.088
66.857,-1.329,0.731,-0.027
66.878,-1.538,0.714,-0.099
66.898,-1.093,0.681,-0.297
66.919,-0.983,0.593,-0.566
66.94,-0.093,0.582,-0.670
66.96,0.302,0.637,-0.791
66.981,0.209,0.725,-0.769
67.002,-0.049,0.758,-0.791
67.022,-0.797,0.857,-0.577
67.043,-1.126,0.797,-0.390
67.064,-1.313,0.736,-0.363
67.084,-0.840,0.676,-0.159
67.105,-0.802,0.571,0.011
67.126,0.269,0.555,0.044
67.147,0.862,0.654,0.291
67.167,0.862,0.797,0.500
67.188,0.835,0.835,0.555
67.209,0.242,1.033,0.807
67.229,-0.049,1.033,0.967
67.25,-0.379,0.983,1.000
67.271,-0.115,0.956,1.148
67.291,-0.165,0.884,1.165
67.312,0.648,0.824,1.154
67.333,1.071,0.945,1.099
67.353,1.049,1.071,0.989
67.374,0.879,1.055,0.934
67.395,0.330,1.225,0.862
67.416,0.077,1.187,0.857
67.436,-0.187,1.126,0.846
67.457,0.181,1.093,0.956
67.478,0.187,1.044,1.049
67.498,0.939,1.000,1.049
67.519,1.225,1.159,1.126
67.54,1.219,1.291,1.137
67.56,0.736,1.285,1.110
67.581,0.071,1.434,1.066
67.602,-0.203,1.346,0.967
67.622,-0.555,1.296,0.906
67.643,-0.148,1.203,0.764
67.664,-0.104,1.143,0.648
67.685,0.725,1.110,0.571
67.705,1.126,1.280,0.461
67.726,1.148,1.450,0.374
67.747,0.764,1.500,0.291
67.767,0.126,1.681,0.099
67.788,-0.176,1.670,-0.143
67.809,-0.659,1.664,-0.269
67.829,-0.390,1.670,-0.659
67.85,-0.401,1.708,-0.934
67.871,0.258,1.708,-1.088
67.891,0.643,1.879,-1.324
67.912,0.648,1.978,-1.373
67.933,0.374,2.000,-1.439
67.954,-0.027,2.027,-1.423
67.974,-0.269,1.917,-1.368
67.995,-0.450,1.879,-1.390
68.016,-0.027,1.758,-1.357
68.036,0.005,1.714,-1.346
68.057,0.604,1.697,-1.390
68.078,0.797,1.807,-1.412
68.098,0.731,1.934,-1.417
68.119,0.286,1.961,-1.478
68.14,-0.082,2.065,-1.544
68.16,-0.330,2.054,-1.631
68.181,-0.615,2.043,-1.703
68.202,-0.363,1.961,-1.895
68.223,-0.401,1.851,-2.071
68.243,0.236,1.802,-2.164
68.264,0.983,1.697,-2.324
68.285,1.099,1.626,-2.346
68.305,1.555,1.588,-2.384
68.326,1.538,1.544,-2.285
68.347,1.395,1.489,-2.203
68.367,0.846,1.445,-2.197
68.388,0.654,1.390,-2.159
68.409,0.461,1.368,-2.109
68.429,0.472,1.335,-2.120
68.45,0.797,1.346,-1.994
68.471,0.780,1.412,-1.824
68.492,0.983,1.406,-1.785
68.512,1.115,1.516,-1.703
68.533,1.033,1.626,-1.769
68.554,0.928,1.626,-1.840
68.574,0.983,1.725,-1.840
68.595,0.884,1.703,-1.456
68.616,0.879,1.653,-1.291
68.636,1.005,1.500,-0.286
68.657,0.956,1.362,0.758
68.678,0.923,1.269,1.192
68.698,0.967,1.137,2.208
68.719,0.901,1.044,2.609
68.74,0.895,0.967,2.730
68.761,1.126,0.824,2.697
68.781,1.143,0.709,2.823
68.802,1.148,0.621,2.840
68.823,0.961,0.544,3.197
68.843,0.813,0.610,3.499
68.864,0.115,0.599,3.593
68.885,-0.302,0.775,3.466
68.905,-0.522,0.934,3.093
68.926,-0.846,0.939,2.851
68.947,-0.720,0.983,1.928
68.967,-0.709,0.895,1.439
68.988,-0.582,0.824,1.143
69.009,-0.560,0.621,0.884
69.03,-0.604,0.472,0.994
69.05,-1.055,0.379,0.994
69.071,-1.291,0.297,0.906
69.092,-1.445,0.302,0.786
69.112,-1.544,0.286,0.670
69.133,-1.143,0.357,0.346
69.154,-0.994,0.385,0.478
69.174,-0.621,0.379,0.516
69.195,-0.527,0.363,1.016
69.216,-0.549,0.324,1.604
69.236,-1.110,0.286,1.873
69.257,-1.379,0.236,2.236
69.278,-1.555,0.258,2.422
69.299,-1.681,0.242,2.433
69.319,-1.313,0.286,2.258
69.34,-1.170,0.335,2.252
69.361,-0.923,0.324,2.164
69.381,-0.791,0.280,1.967
69.402,-0.802,0.220,1.796
69.423,-1.318,0.159,1.626
69.443,-1.500,0.077,0.906
69.464,-1.659,0.126,0.308
69.485,-1.807,0.121,-0.126
69.505,-1.450,0.275,-0.994
69.526,-1.307,0.439,-1.291
69.547,-1.176,0.500,-1.483
69.568,-1.132,0.604,-1.461
69.588,-1.187,0.637,-1.307
69.609,-1.758,0.621,-1.219
69.63,-1.857,0.527,-1.198
69.65,-1.967,0.533,-1.335
69.671,-1.972,0.489,-1.450
69.692,-1.566,0.522,-1.796
69.712,-1.384,0.659,-1.824
69.733,-1.269,0.703,-1.840
69.754,-1.236,0.736,-1.505
69.774,-1.291,0.742,-1.165
69.795,-1.824,0.703,-0.950
69.816,-1.912,0.511,-0.698
69.837,-1.994,0.472,-0.654
69.857,-1.989,0.417,-0.659
69.878,-1.664,0.335,-0.786
69.899,-1.489,0.434,-0.813
69.919,-1.395,0.434,-0.846
69.94,-1.362,0.478,-0.868
69.961,-1.368,0.648,-0.901
69.981,-1.549,0.676,-0.934
70.002,-1.373,0.791,-1.241
70.023,-1.247,1.011,-1.500
70.043,-0.846,1.066,-1.714
70.064,-0.505,1.219,-2.098
70.085,-0.258,1.390,-2.164
70.106,-0.198,1.423,-2.203
70.126,-0.280,1.450,-2.104
70.147,-0.330,1.522,-2.038
70.168,-0.483,1.511,-1.994
70.188,-0.341,1.516,-2.269
70.209,-0.170,1.588,-2.527
70.23,0.209,1.593,-2.774
70.25,0.417,1.631,-3.181
70.271,0.599,1.697,-3.197
70.292,0.247,1.708,-3.170
70.312,-0.038,1.758,-2.807
70.333,-0.214,1.829,-2.455
70.354,-0.291,1.851,-2.115
70.375,0.088,1.928,-1.763
70.395,0.494,2.005,-1.593
70.416,1.104,2.032,-1.456
70.437,1.247,2.071,-1.351
70.457,1.373,2.104,-1.104
70.478,0.758,2.104,-0.829
70.499,0.319,2.115,-0.231
70.519,0.027,2.137,0.154
70.54,-0.280,2.142,0.544
70.561,-0.066,2.164,0.511
70.581,0.280,2.181,0.242
70.602,0.862,2.175,-0.132
70.623,1.121,2.120,-0.802
70.644,1.390,2.082,-0.857
70.664,0.972,2.032,-0.802
70.685,0.549,1.972,-0.077
70.706,0.225,2.000,0.538
70.726,-0.297,2.016,1.302
70.747,-0.291,2.054,2.120
70.768,-0.071,2.098,2.351
70.788,0.231,2.109,2.516
70.809,0.379,2.027,2.362
70.83,0.615,1.967,2.373
70.85,0.319,1.906,2.450
70.871,0.077,1.758,2.878
70.892,-0.099,1.686,3.142
70.913,-0.560,1.615,3.516
70.933,-0.709,1.461,3.620
70.954,-0.698,1.406,3.488
70.975,-0.758,1.329,3.197
70.995,-0.780,1.192,2.368
71.016,-0.692,1.159,1.939
71.037,-0.884,1.126,1.324
71.057,-1.027,1.099,0.862
71.078,-1.071,1.121,0.775
71.099,-1.159,1.132,0.829
71.119,-1.137,1.077,0.967
71.14,-0.956,1.033,0.983
71.161,-0.818,0.972,1.082
71.182,-0.818,0.775,1.033
71.202,-0.720,0.687,1.016
71.223,-0.824,0.599,1.165
71.244,-0.912,0.401,1.467
71.264,-0.906,0.324,1.577
71.285,-0.950,0.253,2.049
71.306,-1.005,0.077,2.379
71.326,-0.917,0.022,2.433
71.347,-0.884,-0.016,2.675
71.368,-0.906,-0.082,2.670
71.388,-0.764,-0.055,2.598
71.409,-0.698,-0.022,2.494
71.43,-0.731,-0.011,2.148
71.451,-0.560,0.000,1.972
71.471,-0.434,0.016,1.588
71.492,-0.450,-0.038,1.115
71.513,-0.247,-0.038,0.923
71.533,-0.231,-0.044,0.527
71.554,-0.341,-0.060,0.071
71.575,-0.313,-0.027,-0.104
71.595,-0.390,0.005,-0.472
71.616,-0.494,0.027,-0.747
71.637,-0.330,0.082,-0.857
71.657,-0.220,0.115,-0.764
71.678,-0.302,0.165,-0.588
71.699,-0.148,0.192,-0.582
71.72,-0.187,0.192,-0.401
71.74,-0.319,0.115,-0.560
71.761,-0.258,0.088,-0.648
71.782,-0.214,0.033,-0.961
71.802,-0.335,0.000,-1.187
71.823,-0.055,0.027,-1.258
71.844,0.071,0.110,-1.099
71.864,-0.027,0.231,-0.813
71.885,0.121,0.280,-0.753
71.906,0.055,0.352,-0.406
71.926,-0.104,0.319,-0.363
71.947,-0.071,0.302,-0.357
71.968,-0.016,0.297,-0.566
71.989,-0.137,0.302,-0.813
72.009,0.165,0.330,-0.906
72.03,0.374,0.423,-1.044
72.051,0.286,0.450,-1.049
72.071,0.516,0.428,-1.060
72.092,0.516,0.428,-1.060
72.113,0.396,0.335,-1.203
72.133,0.374,0.291,-1.274
72.154,0.324,0.313,-1.527
72.175,0.198,0.428,-1.719
72.195,0.324,0.472,-1.813
72.216,0.467,0.714,-1.928
72.237,0.412,0.846,-2.038
72.258,0.593,0.857,-2.104
72.278,0.626,0.934,-2.285
72.299,0.544,0.873,-2.444
72.32,0.467,0.829,-2.516
72.34,0.445,0.879,-2.532
72.361,0.357,0.934,-2.373
72.382,0.489,0.934,-2.351
72.402,0.709,1.143,-2.032
72.423,0.703,1.291,-1.824
72.444,0.912,1.291,-1.807
72.464,0.989,1.445,-1.791
72.485,0.939,1.467,-1.923
72.506,0.829,1.428,-2.010
72.527,0.791,1.560,-2.236
72.547,0.687,1.653,-2.510
72.568,0.720,1.631,-2.659
72.589,0.857,1.912,-2.999
72.609,0.807,2.071,-3.016
72.63,0.769,2.071,-3.082
72.651,0.588,2.274,-2.681
72.671,0.450,2.307,-2.060
72.692,0.104,2.285,-1.879
72.713,0.071,2.373,-0.967
72.733,-0.038,2.417,-0.313
72.754,0.203,2.395,-0.126
72.775,0.522,2.571,0.341
72.796,0.511,2.675,0.615
72.816,0.544,2.675,0.654
72.837,0.401,2.785,0.956
72.858,0.242,2.818,1.121
72.878,-0.104,2.802,1.143
72.899,-0.093,2.867,1.126
72.92,-0.209,2.906,0.956
72.94,0.077,2.900,0.851
72.961,0.406,2.988,0.346
72.982,0.390,2.999,-0.187
73.002,0.335,2.999,-0.423
73.023,0.110,3.010,-0.961
73.044,-0.104,2.955,-1.132
73.065,-0.544,2.928,-1.219
73.085,-0.505,2.900,-1.115
73.106,-0.610,2.845,-0.939
73.127,-0.280,2.829,-0.901
73.147,0.137,2.763,-0.720
73.168,0.137,2.648,-0.555
73.189,0.187,2.609,-0.500
73.209,0.176,2.455,-0.264
73.23,0.038,2.302,-0.022
73.251,-0.071,2.252,0.055
73.271,0.192,2.131,0.335
73.292,0.154,2.010,0.720
73.313,0.527,1.956,0.862
73.334,0.835,1.829,1.483
73.354,0.829,1.664,1.972
73.375,0.731,1.615,2.164
73.396,0.610,1.434,2.274
73.416,0.439,1.269,2.016
73.437,0.192,1.214,1.857
73.458,0.297,1.066,1.022
73.478,0.231,0.928,0.434
73.499,0.385,0.868,0.104
73.52,0.494,0.736,-0.500
73.54,0.456,0.621,-0.654
73.561,0.181,0.560,-0.758
73.582,0.005,0.450,-0.807
73.603,-0.148,0.341,-0.731
73.623,-0.357,0.280,-0.731
73.644,-0.209,0.203,-0.747
73.665,-0.203,0.181,-0.593
73.685,0.011,0.143,-0.571
73.706,0.192,0.198,-0.368
73.727,0.236,0.258,0.011
73.747,0.033,0.236,0.148
73.768,-0.115,0.242,0.533
73.789,-0.220,0.176,0.912
73.809,-0.500,0.121,1.071
73.83,-0.472,-0.005,1.280
73.851,-0.500,-0.066,1.489
73.872,-0.472,-0.121,1.533
73.892,-0.363,-0.165,1.544
73.913,-0.368,-0.192,1.582
73.934,-0.588,-0.264,1.538
73.954,-0.692,-0.368,1.225
73.975,-0.797,-0.434,0.961
73.996,-1.066,-0.505,0.736
74.016,-1.016,-0.461,0.137
74.037,-1.027,-0.330,-0.225
74.058,-1.038,-0.335,-0.489
74.078,-0.928,-0.132,-1.038
74.099,-0.917,-0.055,-1.335
74.12,-1.104,-0.066,-1.549
74.141,-1.121,-0.115,-1.890
74.161,-1.187,-0.203,-1.989
74.182,-1.395,-0.264,-2.065
74.203,-1.280,-0.341,-2.109
74.223,-1.274,-0.308,-2.076
74.244,-1.198,-0.324,-2.060
74.265,-0.917,-0.231,-2.016
74.285,-0.829,-0.203,-1.917
74.306,-0.895,-0.214,-1.890
74.327,-0.851,-0.275,-1.747
74.347,-0.884,-0.330,-1.555
74.368,-1.159,-0.363,-1.423
74.389,-1.082,-0.313,-1.104
74.41,-1.088,-0.203,-0.857
74.43,-1.176,-0.176,-0.709
74.451,-1.005,-0.022,-0.588
74.472,-0.972,0.060,-0.533
74.492,-1.115,0.071,-0.494
74.513,-1.038,0.000,-0.406
74.534,-1.044,-0.093,-0.236
74.554,-1.236,-0.148,-0.099
74.575,-1.082,-0.269,0.066
74.596,-1.055,-0.253,0.060
74.616,-1.082,-0.275,0.033
74.637,-0.923,-0.225,-0.483
74.658,-0.873,-0.137,-0.934
74.679,-1.049,-0.126,-1.324
74.699,-0.972,-0.104,-1.846
74.72,-0.978,-0.038,-1.769
74.741,-1.049,-0.044,-1.637
74.761,-0.857,0.022,-0.873
74.782,-0.758,0.165,-0.275
74.803,-0.676,0.192,0.280
74.823,-0.566,0.319,0.906
74.844,-0.516,0.456,1.143
74.865,-0.769,0.472,1.318
74.885,-0.890,0.483,1.379
74.906,-0.956,0.599,1.544
74.927,-1.137,0.604,1.730
74.948,-1.088,0.670,2.093
74.968,-1.005,0.846,2.296
74.989,-0.884,0.901,2.466
75.01,-0.753,0.989,2.192
75.03,-0.621,1.143,1.851
75.051,-0.659,1.159,1.472
75.072,-0.654,1.148,0.626
75.092,-0.615,1.258,0.253
75.113,-0.670,1.258,-0.104
75.134,-0.533,1.291,-0.379
75.154,-0.379,1.483,-0.374
75.175,-0.159,1.533,-0.335
75.196,0.005,1.620,-0.352
75.217,0.187,1.747,-0.390
75.237,0.093,1.752,-0.456
75.258,-0.027,1.681,-0.632
75.279,-0.082,1.648,-0.571
75.299,-0.417,1.582,-0.456
75.32,-0.417,1.461,-0.005
75.341,-0.341,1.467,0.313
75.361,-0.077,1.423,0.736
75.382,0.181,1.423,1.143
75.403,0.489,1.450,1.296
75.423,0.505,1.434,1.461
75.444,0.401,1.373,1.450
75.465,0.352,1.335,1.406
75.486,-0.093,1.274,1.313
75.506,-0.181,1.192,1.071
75.527,-0.126,1.159,0.950
75.548,0.022,1.126,0.813
75.568,0.264,1.071,0.549
75.589,0.593,1.055,0.385
75.61,0.720,1.005,0.137
75.63,0.698,0.890,-0.242
75.651,0.764,0.818,-0.379
75.672,0.379,0.731,-0.516
75.692,0.236,0.588,-0.478
75.713,0.258,0.544,-0.412
75.734,0.280,0.500,-0.148
75.755,0.417,0.511,0.115
75.775,0.703,0.560,0.176
75.796,0.791,0.555,0.308
75.817,0.769,0.363,0.110
75.837,0.851,0.143,-0.049
75.858,0.533,-0.055,-0.324
75.879,0.406,-0.396,-0.604
75.899,0.417,-0.478,-0.709
75.92,0.412,-0.560,-0.637
75.941,0.527,-0.626,-0.456
75.961,0.802,-0.676,-0.428
75.982,1.016,-0.731,-0.170
76.003,1.038,-0.972,-0.170
76.024,1.170,-1.060,-0.253
76.044,0.945,-1.137,-0.385
76.065,0.824,-1.027,-0.626
76.086,0.807,-0.769,-0.736
76.106,0.818,-0.516,-0.731
76.127,0.884,-0.093,-0.676
76.148,1.132,0.104,-0.709
76.168,1.307,0.236,-0.626
76.189,1.313,0.110,-0.879
76.21,1.412,0.011,-1.016
76.23,1.280,-0.115,-1.516
76.251,1.187,-0.220,-2.098
76.272,1.214,-0.110,-2.302
76.293,1.302,0.016,-2.686
76.313,1.329,0.291,-2.878
76.334,1.571,0.439,-2.977
76.355,1.681,0.577,-2.878
76.375,1.599,0.478,-2.769
76.396,1.620,0.406,-2.780
76.417,1.401,0.308,-2.516
76.437,1.269,0.231,-2.280
76.458,1.291,0.346,-2.247
76.479,1.439,0.500,-1.835
76.499,1.467,0.797,-1.544
76.52,1.780,0.978,-1.478
76.541,1.917,1.148,-1.181
76.562,1.851,1.137,-1.066
76.582,1.890,1.077,-1.038
76.603,1.664,0.972,-0.873
76.624,1.483,0.813,-0.670
76.644,1.439,0.818,-0.626
76.665,1.412,0.862,-0.225
76.686,1.318,1.049,0.099
76.706,1.450,1.181,0.176
76.727,1.417,1.368,0.450
76.748,1.274,1.494,0.472
76.768,1.247,1.549,0.450
76.789,1.066,1.615,0.341
76.81,0.895,1.653,0.275
76.831,0.928,1.703,0.247
76.851,0.928,1.747,0.368
76.872,0.791,1.763,0.571
76.893,0.912,1.763,0.604
76.913,0.840,1.796,0.824
76.934,0.665,1.769,0.873
76.955,0.637,1.769,0.862
76.975,0.538,1.791,0.813
76.996,0.379,1.780,0.775
77.017,0.500,1.752,0.731
77.037,0.582,1.741,0.851
77.058,0.456,1.593,1.115
77.079,0.610,1.500,1.165
77.1,0.467,1.335,1.588
77.12,0.275,1.099,1.873
77.141,0.082,1.022,1.912
77.162,-0.198,0.978,1.967
77.182,-0.401,1.000,1.763
77.203,-0.467,1.005,1.653
77.224,-0.450,1.148,1.247
77.244,-0.577,1.181,1.022
77.265,-0.439,1.143,0.890
77.286,-0.505,1.165,0.758
77.306,-0.637,1.099,0.654
77.327,-0.780,1.033,0.555
77.348,-0.901,1.060,0.231
77.369,-1.033,1.005,-0.071
77.389,-0.934,0.939,-0.247
77.41,-0.846,0.939,-0.489
77.431,-0.901,0.813,-0.445
77.451,-0.956,0.725,-0.467
77.472,-1.082,0.681,-0.187
77.493,-1.187,0.626,0.022
77.513,-1.148,0.566,0.038
77.534,-0.873,0.659,-0.005
77.555,-0.868,0.681,-0.209
77.575,-0.527,0.626,-0.335
77.596,-0.412,0.703,-0.604
77.617,-0.456,0.643,-0.648
77.638,-0.709,0.588,-0.692
77.658,-1.005,0.560,-0.538
77.679,-1.176,0.445,-0.445
77.7,-1.379,0.390,-0.434
77.72,-1.176,0.308,-0.621
77.741,-1.203,0.209,-0.961
77.762,-0.709,0.165,-1.126
77.782,-0.286,0.165,-1.588
77.803,-0.269,0.247,-1.774
77.824,-0.231,0.258,-1.862
77.844,-0.385,0.439,-1.807
77.865,-0.538,0.357,-1.730
77.886,-0.736,0.341,-1.714
77.907,-0.555,0.005,-1.796
77.927,-0.599,-0.313,-1.978
77.948,-0.148,-0.401,-2.098
77.969,0.269,-0.489,-2.401
77.989,0.286,-0.406,-2.477
78.01,0.324,-0.401,-2.532
78.031,0.148,-0.297,-2.466
78.051,-0.044,-0.417,-2.357
78.072,-0.483,-0.467,-2.324
78.093,-0.599,-0.725,-2.401
78.113,-0.764,-0.818,-2.538
78.134,-0.676,-0.851,-2.648
78.155,-0.346,-0.527,-2.977
78.176,-0.357,-0.082,-2.994
78.196,-0.214,0.049,-3.043
78.217,-0.198,0.450,-2.774
78.238,-0.319,0.412,-2.329
78.258,-0.522,0.390,-2.153
78.279,-0.472,-0.044,-1.686
78.3,-0.588,-0.423,-1.434
78.32,-0.417,-0.555,-1.362
78.341,-0.049,-0.604,-1.428
78.362,-0.049,-0.341,-1.395
78.382,0.148,-0.275,-1.428
78.403,0.231,0.110,-1.307
78.424,0.126,0.099,-0.928
78.445,-0.077,0.071,-0.775
78.465,-0.082,-0.330,-0.357
78.486,-0.203,-0.676,-0.099
78.507,-0.154,-0.802,-0.038
78.527,0.093,-0.824,-0.313
78.548,0.082,-0.549,-0.522
78.569,0.132,-0.472,-0.714
78.589,0.115,-0.071,-1.000
78.61,0.016,-0.027,-0.818
78.631,-0.275,-0.049,-0.758
78.651,-0.319,-0.379,-0.357
78.672,-0.406,-0.654,0.044
78.693,-0.341,-0.786,0.209
78.714,-0.088,-0.731,0.258
78.734,-0.033,-0.346,0.291
78.755,0.038,-0.242,0.236
78.776,0.016,0.236,0.253
78.796,-0.060,0.396,0.566
78.817,-0.330,0.390,0.720
78.838,-0.313,0.269,1.154
78.858,-0.341,0.203,1.395
78.879,-0.187,0.137,1.472
78.9,0.110,0.379,1.208
78.92,0.187,0.764,0.912
78.941,0.220,0.868,0.665
78.962,0.176,1.269,0.258
78.983,0.099,1.373,0.225
79.003,-0.247,1.357,0.203
79.024,-0.258,1.263,0.445
79.045,-0.302,1.219,0.654
79.065,-0.264,1.181,0.747
79.086,-0.005,1.373,0.725
79.107,0.071,1.588,0.588
79.127,0.071,1.648,0.445
79.148,0.143,1.752,0.099
79.169,0.110,1.648,-0.027
79.189,-0.005,1.577,-0.132
79.21,0.225,1.406,-0.148
79.231,0.297,1.423,-0.082
79.252,0.544,1.412,-0.038
79.272,0.884,1.664,-0.033
79.293,1.005,1.884,0.005
79.314,0.956,1.950,0.011
79.334,0.972,1.972,0.104
79.355,0.939,1.785,0.297
79.376,0.753,1.675,0.423
79.396,0.978,1.285,0.643
79.417,1.049,1.104,0.703
79.438,1.181,0.994,0.725
79.458,1.434,0.961,0.489
79.479,1.500,1.033,0.308
79.5,1.296,1.038,0.121
79.521,1.269,1.005,-0.214
79.541,1.187,0.890,-0.368
79.562,1.027,0.797,-0.505
79.583,1.318,0.538,-0.797
79.603,1.434,0.489,-0.934
79.624,1.615,0.445,-1.044
79.645,1.868,0.533,-1.214
79.665,1.945,0.720,-1.203
79.686,1.719,0.780,-1.181
79.707,1.719,0.824,-1.132
79.727,1.653,0.758,-1.033
79.748,1.505,0.676,-0.956
79.769,1.736,0.390,-1.022
79.79,1.835,0.417,-1.038
79.81,1.939,0.406,-1.049
79.831,2.109,0.698,-1.011
79.852,2.170,0.967,-0.835
79.872,1.890,1.060,-0.637
79.893,1.747,0.840,-0.368
79.914,1.637,0.516,-0.247
79.934,1.318,0.275,-0.132
79.955,1.362,-0.275,-0.368
79.976,1.406,-0.374,-0.555
79.996,1.467,-0.467,-0.753
80.017,1.538,-0.412,-1.088
80.038,1.582,-0.297,-1.170
80.059,1.368,-0.302,-1.203
80.079,1.236,-0.511,-1.258
80.1,1.170,-0.599,-1.269
80.121,1.027,-0.714,-1.285
80.141,1.082,-0.698,-1.461
80.162,1.187,-0.401,-1.505
80.183,1.176,-0.269,-1.566
80.203,1.132,0.082,-1.500
80.224,1.121,0.176,-1.351
80.245,0.786,0.159,-1.137
80.265,0.604,-0.242,-0.829
80.286,0.511,-0.577,-0.665
80.307,0.297,-0.846,-0.467
80.328,0.324,-1.055,-0.385
80.348,0.401,-0.901,-0.363
80.369,0.368,-0.802,-0.346
80.39,0.330,-0.423,-0.390
80.41,0.341,-0.286,-0.385
80.431,0.027,-0.247,-0.346
80.452,-0.159,-0.500,-0.275
80.472,-0.220,-0.703,-0.225
80.493,-0.434,-0.884,-0.099
80.514,-0.428,-0.978,-0.099
80.534,-0.324,-0.824,-0.143
80.555,-0.368,-0.714,-0.192
80.576,-0.390,-0.390,-0.385
80.597,-0.341,-0.291,-0.467
80.617,-0.632,-0.258,-0.489
80.638,-0.797,-0.544,-0.445
80.659,-0.840,-0.747,-0.406
80.679,-1.082,-0.928,-0.225
80.7,-1.104,-0.972,-0.121
80.721,-1.005,-0.769,-0.143
80.741,-1.049,-0.593,-0.110
80.762,-1.071,-0.143,-0.253
80.783,-0.989,0.077,-0.341
80.803,-1.263,0.209,-0.396
80.824,-1.379,0.154,-0.467
80.845,-1.368,0.082,-0.505
80.866,-1.478,0.000,-0.396
80.886,-1.417,-0.049,-0.324
80.907,-1.208,0.082,-0.357
80.928,-1.154,0.192,-0.181
80.948,-1.143,0.450,-0.154
80.969,-1.044,0.593,-0.225
80.99,-1.307,0.703,-0.225
81.01,-1.423,0.703,-0.423
81.031,-1.412,0.731,-0.544
81.052,-1.478,0.764,-0.725
81.072,-1.401,0.879,-1.000
81.093,-1.170,1.033,-1.115
81.114,-1.088,1.187,-1.252
81.135,-1.110,1.351,-1.384
81.155,-1.049,1.395,-1.472
81.176,-1.291,1.395,-1.434
81.197,-1.373,1.225,-1.445
81.217,-1.329,1.203,-1.500
81.238,-1.236,1.203,-1.456
81.259,-1.110,1.368,-1.566
81.279,-0.802,1.620,-1.620
81.3,-0.626,1.884,-1.774
81.321,-0.626,2.197,-1.950
81.341,-0.538,2.307,-2.005
81.362,-0.692,2.368,-2.000
81.383,-0.758,2.203,-1.851
81.404,-0.736,2.126,-1.818
81.424,-0.599,2.021,-1.478
81.445,-0.494,1.994,-1.247
81.466,-0.220,2.098,-1.203
81.486,-0.055,2.252,-1.027
81.507,-0.093,2.428,-0.994
81.528,-0.060,2.505,-1.000
81.548,-0.198,2.543,-0.923
81.569,-0.291,2.428,-0.851
81.59,-0.242,2.368,-0.851
81.61,-0.115,2.263,-0.753
81.631,-0.077,2.197,-0.758
81.652,0.198,2.225,-0.775
81.673,0.286,2.285,-0.824
81.693,0.198,2.263,-0.884
81.714,0.187,2.186,-0.928
81.735,-0.016,2.032,-0.890
81.755,-0.154,1.626,-0.884
81.776,-0.104,1.445,-0.906
81.797,0.044,1.214,-0.972
81.817,0.044,1.093,-0.983
81.838,0.374,1.121,-1.027
81.859,0.483,1.219,-0.857
81.879,0.379,1.307,-0.516
81.9,0.385,1.302,-0.450
81.921,0.203,1.296,0.104
81.942,0.033,1.203,0.494
81.962,0.071,1.159,0.582
81.983,0.159,1.181,0.791
82.004,0.060,1.148,0.890
82.024,0.302,1.104,0.857
82.045,0.291,1.038,1.077
82.066,0.137,0.807,1.384
82.086,0.060,0.681,1.434
82.107,-0.165,0.472,1.741
82.128,-0.357,0.181,1.752
82.148,-0.379,0.049,1.703
82.169,-0.374,-0.148,1.263
82.19,-0.511,-0.385,0.742
82.211,-0.335,-0.483,0.489
82.231,-0.357,-0.511,-0.099
82.252,-0.516,-0.456,-0.275
82.273,-0.566,-0.450,-0.390
82.293,-0.736,-0.110,-0.269
82.314,-0.923,0.176,-0.071
82.335,-0.890,0.187,-0.044
82.355,-0.835,0.374,0.093
82.376,-0.956,0.220,0.104
82.397,-0.758,0.132,0.060
82.417,-0.709,-0.088,0.077
82.438,-0.835,-0.269,0.231
82.459,-0.840,-0.346,0.269
82.48,-0.945,-0.154,0.643
82.5,-1.093,0.060,1.027
82.521,-1.176,0.066,1.159
82.542,-1.225,0.253,1.549
82.562,-1.340,0.077,1.692
82.583,-1.280,-0.005,1.719
82.604,-1.307,-0.280,1.527
82.624,-1.412,-0.461,1.214
82.645,-1.571,-0.527,1.060
82.666,-1.719,-0.428,0.604
82.686,-1.835,-0.335,0.352
82.707,-1.807,-0.313,0.203
82.728,-1.566,-0.253,-0.027
82.749,-1.577,-0.385,-0.088
82.769,-1.313,-0.412,-0.148
82.79,-1.318,-0.588,-0.203
82.811,-1.401,-0.648,-0.165
82.831,-1.791,-0.659,-0.181
82.852,-2.120,-0.505,-0.115
82.873,-2.296,-0.368,0.049
82.893,-2.444,-0.341,0.093
82.914,-2.247,-0.258,0.236
82.935,-2.258,-0.313,0.313
82.955,-1.895,-0.335,0.297
82.976,-1.703,-0.379,0.170
82.997,-1.741,-0.368,0.143
83.018,-1.950,-0.363,0.093
83.038,-2.197,-0.192,0.159
83.059,-2.357,-0.060,0.450
83.08,-2.538,-0.033,0.549
83.1,-2.346,0.077,0.873
83.121,-2.395,0.060,1.044
83.142,-2.010,0.049,1.066
83.162,-1.708,-0.005,0.764
83.183,-1.736,-0.038,0.500
83.204,-1.769,-0.055,0.286
83.224,-1.835,0.016,-0.165
83.245,-1.972,0.132,-0.236
83.266,-2.054,0.143,-0.302
83.287,-1.846,0.297,-0.396
83.307,-1.906,0.379,-0.406
83.328,-1.599,0.390,-0.472
83.349,-1.329,0.483,-0.857
83.369,-1.384,0.632,-1.093
83.39,-1.412,0.665,-1.302
83.411,-1.368,0.972,-1.758
83.431,-1.483,1.214,-1.862
83.452,-1.373,1.263,-1.972
83.473,-0.967,1.423,-2.021
83.493,-0.967,1.406,-1.868
83.514,-0.516,1.357,-1.824
83.535,-0.192,1.225,-1.747
83.556,-0.225,1.192,-1.626
83.576,-0.297,1.148,-1.609
83.597,-0.319,1.340,-1.522
83.618,-0.472,1.566,-1.346
83.638,-0.516,1.604,-1.263
83.659,-0.280,1.785,-1.000
83.68,-0.324,1.802,-0.753
83.7,-0.110,1.774,-0.615
83.721,0.088,1.703,-0.401
83.742,0.011,1.725,-0.352
83.762,-0.110,1.692,-0.341
83.783,-0.049,1.857,-0.511
83.804,-0.159,2.005,-0.610
83.825,-0.060,2.010,-0.714
83.845,0.264,2.010,-0.813
83.866,0.269,1.873,-0.807
83.887,0.472,1.785,-0.807
83.907,0.610,1.582,-0.797
83.928,0.538,1.483,-0.769
83.949,0.390,1.412,-0.775
83.969,0.439,1.379,-0.824
83.99,0.363,1.335,-0.797
84.011,0.461,1.285,-0.797
84.031,0.736,1.110,-0.780
84.052,0.758,0.950,-0.692
84.073,0.901,0.862,-0.626
84.094,1.005,0.791,-0.522
84.114,0.989,0.873,-0.396
84.135,0.840,0.890,-0.308
84.156,0.846,1.115,-0.154
84.176,0.797,1.269,-0.011
84.197,0.758,1.313,0.110
84.218,0.890,1.313,0.214
84.238,0.884,1.236,0.264
84.259,0.857,1.176,0.297
84.28,0.890,1.082,0.093
84.3,0.846,1.093,-0.055
84.321,0.665,1.071,-0.187
84.342,0.670,1.077,-0.527
84.363,0.615,1.011,-0.643
84.383,0.505,0.950,-0.714
84.404,0.544,0.687,-0.736
84.425,0.516,0.500,-0.599
84.445,0.341,0.396,-0.456
84.466,0.324,0.330,-0.253
84.487,0.258,0.450,-0.104
84.507,-0.005,0.467,0.033
84.528,-0.049,0.670,0.060
84.549,-0.137,0.769,0.099
84.569,-0.374,0.786,0.126
84.59,-0.379,0.692,0.126
84.611,-0.445,0.626,0.214
84.632,-0.659,0.560,0.346
84.652,-0.786,0.478,0.527
84.673,-0.917,0.522,0.654
84.694,-1.483,0.511,0.797
84.714,-1.522,0.478,0.797
84.735,-1.577,0.445,0.747
84.756,-1.291,0.401,0.676
84.776,-0.703,0.225,0.428
84.797,-0.445,0.242,0.319
84.818,-0.313,0.231,0.198
84.838,-0.379,0.363,0.005
84.859,-0.505,0.626,-0.044
84.88,-1.263,0.731,-0.082
84.901,-1.406,0.923,-0.143
84.921,-1.527,1.011,-0.148
84.942,-1.439,1.000,-0.121
84.963,-0.939,0.758,-0.143
84.983,-0.720,0.648,-0.121
85.004,-0.423,0.522,-0.082
85.025,-0.269,0.406,-0.033
85.045,-0.253,0.571,0.027
85.066,-0.736,0.610,0.143
85.087,-0.835,0.846,0.231
85.107,-0.923,1.055,0.253
85.128,-0.912,1.104,0.346
85.149,-0.489,1.038,0.280
85.17,-0.247,1.038,0.209
85.19,0.071,0.983,0.088
85.211,0.247,0.978,-0.225
85.232,0.313,1.187,-0.390
85.252,0.011,1.274,-0.621
85.273,-0.082,1.494,-0.895
85.294,-0.159,1.620,-0.983
85.314,-0.313,1.642,-1.049
85.335,-0.247,1.489,-1.093
85.356,-0.181,1.406,-1.126
85.376,-0.110,1.285,-1.082
85.397,-0.033,1.203,-1.121
85.418,0.044,1.291,-1.159
85.439,-0.093,1.313,-1.104
85.459,-0.159,1.461,-1.033
85.48,-0.181,1.511,-1.033
85.501,-0.379,1.511,-0.780
85.521,-0.385,1.412,-0.604
85.542,-0.346,1.357,-0.604
85.563,-0.297,1.307,-0.423
85.583,-0.154,1.346,-0.478
85.604,0.011,1.483,-0.571
85.625,0.115,1.571,-0.709
85.645,0.187,1.785,-0.972
85.666,0.264,1.895,-1.104
85.687,0.005,1.934,-1.241
85.708,-0.209,1.923,-1.346
85.728,-0.308,1.912,-1.428
85.749,-0.648,1.873,-1.280
85.77,-0.687,1.846,-1.176
85.79,-0.615,1.862,-1.208
85.811,-0.527,1.857,-1.033
85.832,-0.428,1.818,-1.022
85.852,-0.269,1.785,-1.066
85.873,-0.439,1.736,-0.994
85.894,-0.571,1.637,-0.917
85.914,-0.615,1.664,-0.939
85.935,-0.895,1.675,-0.643
85.956,-0.906,1.791,-0.390
85.977,-0.802,1.895,-0.357
85.997,-0.769,1.972,-0.093
86.018,-0.736,1.994,0.000
86.039,-0.632,1.983,0.011
86.059,-0.873,1.956,0.082
86.08,-0.989,1.807,0.192
86.101,-0.972,1.785,0.225
86.121,-1.066,1.769,0.544
86.142,-0.956,1.774,0.846
86.163,-0.736,1.824,0.912
86.183,-0.610,1.868,1.115
86.204,-0.582,1.829,1.077
86.225,-0.472,1.774,1.055
86.246,-0.884,1.719,0.851
86.266,-1.176,1.467,0.637
86.287,-1.368,1.335,0.566
86.308,-1.818,1.225,0.374
86.328,-1.906,1.027,0.242
86.349,-1.835,1.005,0.181
86.37,-1.780,0.994,0.022
86.39,-1.747,0.989,-0.143
86.411,-1.588,1.011,-0.220
86.432,-1.840,1.033,-0.363
86.452,-2.027,0.961,-0.396
86.473,-2.148,0.923,-0.434
86.494,-2.488,0.873,-0.335
86.515,-2.631,0.703,-0.214
86.535,-2.659,0.637,-0.220
86.556,-2.873,0.555,-0.143
86.577,-3.021,0.390,-0.143
86.597,-3.104,0.346,-0.181
86.618,-3.389,0.269,-0.209
86.639,-3.505,0.187,-0.170
86.659,-3.494,0.187,-0.214
86.68,-3.323,0.187,-0.143
86.701,-3.268,0.220,-0.115
86.721,-3.082,0.242,-0.159
86.742,-3.367,0.275,-0.280
86.763,-3.631,0.225,-0.456
86.784,-3.906,0.198,-0.571
86.804,-3.999,0.148,-0.797
86.825,-3.845,0.099,-0.835
86.846,-3.290,0.115,-0.901
86.866,-2.401,0.159,-0.786
86.887,-2.164,0.198,-0.637
86.908,-1.763,0.187,-0.643
86.928,-2.142,0.170,-0.604
86.949,-2.472,-0.022,-0.725
86.97,-2.895,-0.110,-0.824
86.99,-3.109,-0.209,-1.198
87.011,-3.065,-0.236,-1.423
87.032,-2.483,-0.181,-1.549
87.053,-1.522,0.011,-1.511
87.073,-1.252,0.275,-1.214
87.094,-0.643,0.357,-1.126
87.115,-0.802,0.549,-0.610
87.135,-1.077,0.527,-0.258
87.156,-1.478,0.478,-0.148
87.177,-1.703,0.434,-0.011
87.197,-1.736,0.357,-0.027
87.218,-1.121,0.324,-0.071
87.239,-0.209,0.423,-0.082
87.259,-0.049,0.516,0.011
87.28,0.516,0.516,0.027
87.301,0.264,0.621,0.148
87.322,-0.044,0.544,0.192
87.342,-0.566,0.478,0.170
87.363,-1.082,0.472,-0.044
87.384,-1.307,0.494,-0.280
87.404,-1.137,0.467,-0.428
87.425,-0.648,0.698,-0.769
87.446,-0.626,0.851,-0.851
87.466,-0.060,0.840,-0.906
87.487,-0.082,1.011,-0.818
87.508,-0.275,0.950,-0.615
87.528,-0.555,0.890,-0.549
87.549,-0.835,0.846,-0.396
87.57,-1.033,0.764,-0.280
87.591,-0.731,0.709,-0.258
87.611,-0.209,0.807,-0.148
87.632,-0.214,0.873,0.099
87.653,0.352,0.846,0.181
87.673,0.417,0.956,0.483
87.694,0.302,0.884,0.802
87.715,0.231,0.846,0.906
87.735,0.165,0.818,1.110
87.756,0.027,0.802,1.313
87.777,0.247,0.775,1.368
87.797,0.478,0.895,1.406
87.818,0.434,0.967,1.439
87.839,0.560,0.961,1.406
87.86,0.406,1.027,1.159
87.88,0.264,0.983,1.071
87.901,0.066,0.967,0.956
87.922,0.110,0.972,0.698
87.942,0.049,1.016,0.720
87.963,0.483,1.033,0.670
87.984,0.895,1.203,0.714
88.004,0.939,1.313,0.923
88.025,1.027,1.335,0.994
88.046,0.725,1.346,1.121
88.066,0.571,1.252,1.236
88.087,0.099,1.225,1.258
88.108,0.044,1.143,1.055
88.129,-0.049,1.176,0.945
88.149,0.297,1.176,0.807
88.17,0.687,1.362,0.478
88.191,0.714,1.505,0.379
88.211,0.753,1.533,0.280
88.232,0.505,1.637,0.121
88.253,0.324,1.631,0.077
88.273,-0.055,1.626,0.011
88.294,-0.005,1.631,-0.214
88.315,-0.093,1.648,-0.368
88.335,0.225,1.642,-0.511
88.356,0.544,1.752,-0.791
88.377,0.533,1.818,-0.895
88.398,0.428,1.829,-1.000
88.418,0.170,1.884,-1.082
88.439,-0.027,1.912,-1.071
88.46,-0.324,1.895,-1.082
88.48,-0.121,1.945,-1.132
88.501,-0.176,2.016,-1.187
88.522,0.280,2.016,-1.247
88.542,0.648,2.120,-1.412
88.563,0.643,2.142,-1.500
88.584,0.423,2.131,-1.560
88.604,0.066,2.093,-1.686
88.625,-0.192,2.010,-1.736
88.646,-0.560,1.956,-1.802
88.667,-0.247,1.906,-1.967
88.687,-0.269,1.895,-2.038
88.708,0.308,1.879,-2.104
88.729,0.527,1.879,-2.252
88.749,0.445,1.835,-2.280
88.77,-0.011,1.774,-2.307
88.791,-0.148,1.620,-2.324
88.811,-0.324,1.483,-2.252
88.832,0.203,1.395,-2.219
88.853,1.181,1.318,-2.170
88.873,1.417,1.340,-2.109
88.894,2.071,1.296,-2.054
88.915,1.939,1.373,-2.010
88.936,1.725,1.450,-1.906
88.956,0.665,1.428,-1.818
88.977,0.055,1.489,-1.736
88.998,-0.280,1.566,-1.708
89.018,-0.176,1.560,-1.719
89.039,0.676,1.692,-1.906
89.06,0.928,1.730,-1.851
89.08,1.807,1.703,-1.769
89.101,1.895,1.609,-1.263
89.122,1.835,1.445,-0.709
89.142,0.906,1.346,-0.121
89.163,0.269,1.154,0.873
89.184,-0.049,1.022,1.406
89.205,-0.077,0.939,1.901
89.225,0.648,0.829,2.153
89.246,0.923,0.720,2.285
89.267,1.697,0.665,2.395
89.287,1.857,0.533,2.659
89.308,1.840,0.494,2.895
89.329,1.071,0.467,3.181
89.349,0.396,0.604,3.329
89.37,0.055,0.786,3.285
89.391,-0.538,0.851,3.181
89.411,-0.445,1.016,2.598
89.432,-0.412,0.983,2.214
89.453,-0.231,0.934,1.741
89.474,-0.165,0.698,1.192
89.494,-0.187,0.516,1.038
89.515,-0.687,0.423,0.934
89.536,-1.022,0.352,0.923
89.556,-1.219,0.428,0.923
89.577,-1.566,0.417,0.923
89.598,-1.412,0.478,0.758
89.618,-1.379,0.445,0.681
89.639,-1.208,0.390,0.610
89.66,-0.945,0.192,0.698
89.68,-0.862,0.115,0.835
89.701,-0.928,0.055,1.181
89.722,-0.923,0.077,1.692
89.743,-0.972,0.203,1.934
89.763,-1.219,0.242,2.346
89.784,-1.121,0.275,2.637
89.805,-1.121,0.269,2.703
89.825,-1.176,0.231,2.791
89.846,-1.077,0.055,2.565
89.867,-1.077,0.038,2.379
89.887,-1.340,-0.016,2.032
89.908,-1.318,-0.005,1.450
89.929,-1.368,0.148,1.170
89.949,-1.478,0.181,0.665
89.97,-1.263,0.258,0.038
89.991,-1.208,0.352,-0.231
90.012,-1.252,0.352,-0.709
90.032,-1.148,0.319,-1.192
90.053,-1.159,0.428,-1.379
90.074,-1.500,0.423,-1.593
90.094,-1.566,0.461,-1.686
90.115,-1.659,0.566,-1.763
90.136,-1.945,0.566,-1.653
90.156,-1.763,0.489,-1.681
90.177,-1.703,0.516,-1.752
90.198,-1.582,0.472,-1.752
90.218,-1.329,0.439,-1.763
90.239,-1.230,0.577,-1.818
90.26,-1.445,0.599,-1.527
90.281,-1.516,0.648,-1.219
90.301,-1.620,0.720,-1.203
90.322,-1.945,0.698,-0.753
90.343,-1.862,0.566,-0.555
90.363,-1.829,0.538,-0.560
90.384,-1.736,0.472,-0.396
90.405,-1.527,0.461,-0.467
90.425,-1.412,0.604,-0.527
90.446,-1.434,0.670,-0.599
90.467,-1.417,0.901,-0.764
90.487,-1.412,1.093,-0.824
90.508,-1.412,1.181,-0.994
90.529,-1.203,1.329,-1.263
90.55,-1.022,1.390,-1.351
90.57,-0.698,1.406,-1.686
90.591,-0.511,1.439,-2.005
90.612,-0.346,1.483,-2.093
90.632,-0.461,1.489,-2.406
90.653,-0.527,1.538,-2.653
90.674,-0.544,1.588,-2.736
90.694,-0.555,1.599,-2.917
90.715,-0.308,1.631,-3.016
90.736,-0.082,1.664,-3.032
90.756,0.214,1.670,-2.950
90.777,0.313,1.692,-2.763
90.798,0.412,1.769,-2.719
90.819,-0.088,1.802,-2.373
90.839,-0.434,1.912,-2.076
90.86,-0.643,2.021,-2.005
90.881,-0.670,2.082,-1.675
90.901,-0.187,2.170,-1.450
90.922,0.335,2.236,-1.412
90.943,1.203,2.263,-1.082
90.963,1.467,2.263,-0.698
90.984,1.681,2.291,-0.621
91.005,1.005,2.296,-0.137
91.025,0.472,2.258,0.077
91.046,0.088,2.269,0.110
91.067,-0.346,2.247,-0.176
91.088,-0.165,2.148,-0.687
91.108,0.159,2.104,-0.890
91.129,0.764,2.060,-1.159
91.15,1.060,1.983,-0.797
91.17,1.368,2.005,-0.709
91.191,0.967,2.032,0.401
91.212,0.527,2.065,1.401
91.232,0.176,2.120,1.681
91.253,-0.423,2.153,2.384
91.274,-0.428,2.093,2.477
91.294,-0.247,2.065,2.450
91.315,0.148,2.021,2.384
91.336,0.363,1.901,2.637
91.357,0.670,1.873,2.675
91.377,0.450,1.840,3.268
91.398,0.220,1.714,3.554
91.419,0.071,1.642,3.593
91.439,-0.385,1.566,3.285
91.46,-0.560,1.340,2.637
91.481,-0.610,1.252,2.335
91.501,-0.807,1.170,1.362
91.522,-0.862,1.049,0.923
91.543,-0.758,1.066,0.720
91.563,-0.818,1.071,0.813
91.584,-0.857,1.011,1.137
91.605,-0.786,0.994,1.214
91.626,-0.939,0.950,1.417
91.646,-1.044,0.786,1.340
91.667,-1.060,0.731,1.258
91.688,-1.225,0.670,1.093
91.708,-1.291,0.538,1.214
91.729,-1.247,0.500,1.241
91.75,-1.165,0.456,1.813
91.77,-1.088,0.297,2.329
91.791,-0.835,0.231,2.505
91.812,-0.621,0.121,2.873
91.832,-0.615,-0.027,2.950
91.853,-0.516,-0.049,2.939
91.874,-0.643,-0.077,2.802
91.895,-0.764,-0.077,2.631
91.915,-0.742,-0.055,2.516
91.936,-0.665,-0.033,2.170
91.957,-0.637,-0.110,1.846
91.977,-0.368,-0.143,1.670
91.998,-0.143,-0.198,1.110
92.019,-0.154,-0.275,0.654
92.039,0.011,-0.269,0.417
92.06,-0.077,-0.236,-0.159
92.081,-0.236,-0.192,-0.456
92.101,-0.275,-0.159,-0.632
92.122,-0.379,-0.082,-0.764
92.143,-0.489,-0.044,-0.626
92.164,-0.385,-0.033,-0.599
92.184,-0.363,-0.005,-0.423
92.205,-0.472,-0.027,-0.396
92.226,-0.379,-0.044,-0.423
92.246,-0.428,-0.016,-0.775
92.267,-0.538,0.000,-0.978
92.288,-0.390,0.005,-1.121
92.308,-0.275,0.093,-1.214
92.329,-0.352,0.148,-1.000
92.35,-0.044,0.148,-0.917
92.37,0.082,0.236,-0.621
92.391,-0.027,0.247,-0.412
92.412,0.099,0.225,-0.357
92.433,0.055,0.269,-0.544
92.453,-0.104,0.253,-0.725
92.474,-0.005,0.225,-0.901
92.495,0.088,0.297,-1.296
92.515,-0.033,0.335,-1.329
92.536,0.236,0.330,-1.395
92.557,0.286,0.467,-1.346
92.577,0.143,0.500,-1.208
92.598,0.137,0.472,-1.214
92.619,0.027,0.522,-1.417
92.639,-0.137,0.494,-1.577
92.66,-0.016,0.445,-1.736
92.681,0.170,0.555,-2.065
92.702,0.099,0.687,-2.060
92.722,0.434,0.676,-2.104
92.743,0.593,0.961,-2.087
92.764,0.527,1.099,-2.000
92.784,0.610,1.082,-2.000
92.805,0.626,1.192,-2.153
92.826,0.549,1.126,-2.203
92.846,0.604,1.066,-2.274
92.867,0.709,1.082,-2.379
92.888,0.665,1.110,-2.258
92.908,0.824,1.077,-2.225
92.929,0.923,1.335,-2.082
92.95,0.884,1.511,-1.950
92.971,0.862,1.522,-1.912
92.991,0.813,1.692,-1.956
93.012,0.709,1.692,-2.021
93.033,0.615,1.681,-2.104
93.053,0.615,1.708,-2.499
93.074,0.533,1.763,-2.851
93.095,0.560,1.763,-3.115
93.115,0.599,1.989,-3.395
93.136,0.527,2.153,-3.241
93.157,0.461,2.203,-3.115
93.177,0.401,2.340,-2.324
93.198,0.297,2.357,-1.593
93.219,0.209,2.362,-1.088
93.24,0.324,2.390,-0.258
93.26,0.258,2.455,0.082
93.281,0.456,2.461,0.269
93.302,0.681,2.615,0.357
93.322,0.643,2.697,0.555
93.343,0.593,2.714,0.692
93.364,0.500,2.736,1.093
93.384,0.357,2.681,1.335
93.405,0.159,2.664,1.483
93.426,0.198,2.664,1.340
93.446,0.099,2.719,1.016
93.467,0.203,2.725,0.703
93.488,0.302,2.867,-0.187
93.509,0.214,2.917,-0.632
93.529,-0.060,2.928,-0.956
93.55,-0.291,2.889,-1.126
93.571,-0.505,2.791,-1.027
93.591,-0.747,2.741,-0.901
93.612,-0.544,2.670,-0.775
93.633,-0.615,2.664,-0.758
93.653,-0.203,2.642,-0.764
93.674,0.187,2.703,-0.868
93.695,0.165,2.681,-0.764
93.715,0.137,2.642,-0.632
93.736,0.121,2.505,-0.192
93.757,-0.027,2.329,0.258
93.778,-0.027,2.230,0.687
93.798,0.308,2.043,1.357
93.819,0.302,1.961,1.769
93.84,0.632,1.895,2.126
93.86,0.862,1.846,2.368
93.881,0.807,1.763,2.395
93.902,0.599,1.703,2.368
93.922,0.467,1.461,1.934
93.943,0.286,1.208,1.604
93.964,0.077,1.060,1.269
93.984,0.159,0.786,0.549
94.005,0.093,0.670,0.159
94.026,0.110,0.588,-0.220
94.047,0.192,0.582,-0.753
94.067,0.110,0.604,-0.934
94.088,-0.077,0.566,-1.066
94.109,-0.066,0.494,-1.126
94.129,-0.143,0.390,-1.011
94.15,-0.115,0.302,-0.813
94.171,0.110,0.192,-0.406
94.191,0.143,0.176,-0.137
94.212,0.236,0.148,0.181
94.233,0.302,0.165,0.450
94.253,0.269,0.143,0.571
94.274,0.011,0.099,0.692
94.295,-0.132,-0.027,0.813
94.316,-0.258,-0.154,0.934
94.336,-0.538,-0.220,1.093
94.357,-0.571,-0.297,1.318
94.378,-0.632,-0.313,1.439
94.398,-0.753,-0.335,1.626
94.419,-0.709,-0.335,1.620
94.44,-0.736,-0.363,1.511
94.46,-0.912,-0.417,1.285
94.481,-0.967,-0.478,0.659
94.502,-1.038,-0.478,0.319
94.522,-1.280,-0.478,-0.165
94.543,-1.241,-0.368,-0.637
94.564,-1.274,-0.198,-0.786
94.585,-1.263,-0.159,-0.917
94.605,-1.044,-0.055,-1.077
94.626,-1.000,-0.055,-1.198
94.647,-0.994,-0.093,-1.373
94.667,-0.928,-0.236,-1.752
94.688,-0.950,-0.286,-1.923
94.709,-1.252,-0.330,-2.153
94.729,-1.236,-0.313,-2.241
94.75,-1.280,-0.209,-2.241
94.771,-1.280,-0.181,-1.983
94.791,-0.994,-0.154,-1.692
